{
  "creationDateTime": "2023-06-28T15:38:43",
  "datasetJSONVersion": "1.0.0",
  "fileOID": "www.cdisc.org/StudyMSGv2/1/Define-XML_2.1.0/2023-06-28/dm",
  "asOfDateTime": "2023-05-31T00:00:00",
  "originator": "CDISC SDTM MSG Team",
  "sourceSystem": "Sponsor System",
  "sourceSystemVersion": "1.0",
  "clinicalData": {
    "studyOID": "cdisc.com/CDISCPILOT01",
    "metaDataVersionOID": "MDV.MSGv2.0.SDTMIG.3.3.SDTM.1.7",
    "metaDataRef": "https://metadata.location.org/CDISCPILOT01/define.xml",
    "itemGroupData": {
      "IG.DM": {
        "records": 18,
        "name": "DM",
        "label": "Demographics",
        "items": [
          {
            "OID": "ITEMGROUPDATASEQ",
            "name": "ITEMGROUPDATASEQ",
            "label": "Record Identifier",
            "type": "integer"
          },
          {
            "OID": "IT.DM.STUDYID",
            "name": "STUDYID",
            "label": "Study Identifier",
            "type": "string",
            "length": 12,
            "keySequence": 1
          },
          {
            "OID": "IT.DM.DOMAIN",
            "name": "DOMAIN",
            "label": "Domain Abbreviation",
            "type": "string",
            "length": 2
          },
          {
            "OID": "IT.DM.USUBJID",
            "name": "USUBJID",
            "label": "Unique Subject Identifier",
            "type": "string",
            "length": 8,
            "keySequence": 2
          },
          {
            "OID": "IT.DM.SUBJID",
            "name": "SUBJID",
            "label": "Subject Identifier for the Study",
            "type": "string",
            "length": 4
          },
          {
            "OID": "IT.DM.RFSTDTC",
            "name": "RFSTDTC",
            "label": "Subject Reference Start Date/Time",
            "type": "string"
          },
          {
            "OID": "IT.DM.RFENDTC",
            "name": "RFENDTC",
            "label": "Subject Reference End Date/Time",
            "type": "string"
          },
          {
            "OID": "IT.DM.RFXSTDTC",
            "name": "RFXSTDTC",
            "label": "Date/Time of First Study Treatment",
            "type": "string"
          },
          {
            "OID": "IT.DM.RFXENDTC",
            "name": "RFXENDTC",
            "label": "Date/Time of Last Study Treatment",
            "type": "string"
          },
          {
            "OID": "IT.DM.RFICDTC",
            "name": "RFICDTC",
            "label": "Date/Time of Informed Consent",
            "type": "string"
          },
          {
            "OID": "IT.DM.RFPENDTC",
            "name": "RFPENDTC",
            "label": "Date/Time of End of Participation",
            "type": "string"
          },
          {
            "OID": "IT.DM.DTHDTC",
            "name": "DTHDTC",
            "label": "Date/Time of Death",
            "type": "string"
          },
          {
            "OID": "IT.DM.DTHFL",
            "name": "DTHFL",
            "label": "Subject Death Flag",
            "type": "string",
            "length": 1
          },
          {
            "OID": "IT.DM.SITEID",
            "name": "SITEID",
            "label": "Study Site Identifier",
            "type": "string",
            "length": 3
          },
          {
            "OID": "IT.DM.BRTHDTC",
            "name": "BRTHDTC",
            "label": "Date/Time of Birth",
            "type": "string"
          },
          {
            "OID": "IT.DM.AGE",
            "name": "AGE",
            "label": "Age",
            "type": "integer",
            "length": 8
          },
          {
            "OID": "IT.DM.AGEU",
            "name": "AGEU",
            "label": "Age Units",
            "type": "string",
            "length": 5
          },
          {
            "OID": "IT.DM.SEX",
            "name": "SEX",
            "label": "Sex",
            "type": "string",
            "length": 1
          },
          {
            "OID": "IT.DM.RACE",
            "name": "RACE",
            "label": "Race",
            "type": "string",
            "length": 41
          },
          {
            "OID": "IT.DM.ETHNIC",
            "name": "ETHNIC",
            "label": "Ethnicity",
            "type": "string",
            "length": 22
          },
          {
            "OID": "IT.DM.ARMCD",
            "name": "ARMCD",
            "label": "Planned Arm Code",
            "type": "string",
            "length": 8
          },
          {
            "OID": "IT.DM.ARM",
            "name": "ARM",
            "label": "Description of Planned Arm",
            "type": "string",
            "length": 28
          },
          {
            "OID": "IT.DM.ACTARMCD",
            "name": "ACTARMCD",
            "label": "Actual Arm Code",
            "type": "string",
            "length": 8
          },
          {
            "OID": "IT.DM.ACTARM",
            "name": "ACTARM",
            "label": "Description of Actual Arm",
            "type": "string",
            "length": 28
          },
          {
            "OID": "IT.DM.ARMNRS",
            "name": "ARMNRS",
            "label": "Reason Arm and/or Actual Arm is Null",
            "type": "string",
            "length": 14
          },
          {
            "OID": "IT.DM.ACTARMUD",
            "name": "ACTARMUD",
            "label": "Description of Unplanned Actual Arm",
            "type": "string",
            "length": 200
          },
          {
            "OID": "IT.DM.COUNTRY",
            "name": "COUNTRY",
            "label": "Country",
            "type": "string",
            "length": 3
          }
        ],
        "itemData": [
          [
            1,
            "CDISCPILOT01",
            "DM",
            "CDISC001",
            "1115",
            "2012-11-30",
            "2013-01-23",
            "2012-11-30",
            "2013-01-23",
            "2012-11-23",
            "2013-05-20",
            "",
            "",
            "701",
            "1928",
            84,
            "YEARS",
            "M",
            "WHITE",
            "NOT HISPANIC OR LATINO",
            "ZAN_LOW",
            "Zanomaline Low Dose (54 mg)",
            "ZAN_LOW",
            "Zanomaline Low Dose (54 mg)",
            "",
            "",
            "USA"
          ],
          [
            2,
            "CDISCPILOT01",
            "DM",
            "CDISC002",
            "1211",
            "2012-11-15",
            "2013-01-14",
            "2012-11-15",
            "2013-01-12",
            "2012-10-30",
            "2013-01-14",
            "2013-01-14",
            "Y",
            "701",
            "1936",
            76,
            "YEARS",
            "F",
            "WHITE",
            "NOT HISPANIC OR LATINO",
            "ZAN_LOW",
            "Zanomaline Low Dose (54 mg)",
            "ZAN_LOW",
            "Zanomaline Low Dose (54 mg)",
            "",
            "",
            "USA"
          ],
          [
            3,
            "CDISCPILOT01",
            "DM",
            "CDISC003",
            "1302",
            "2013-08-29",
            "2013-11-05",
            "2013-08-29",
            "2013-11-05",
            "2013-08-20",
            "2014-02-13",
            "",
            "",
            "701",
            "1951",
            61,
            "YEARS",
            "M",
            "WHITE",
            "NOT HISPANIC OR LATINO",
            "ZAN_HIGH",
            "Zanomaline High Dose (81 mg)",
            "ZAN_HIGH",
            "Zanomaline High Dose (81 mg)",
            "",
            "",
            "USA"
          ],
          [
            4,
            "CDISCPILOT01",
            "DM",
            "CDISC004",
            "1345",
            "2013-10-08",
            "2014-03-18",
            "2013-10-08",
            "2014-03-18",
            "2013-10-01",
            "2014-03-18",
            "",
            "",
            "701",
            "1950",
            63,
            "YEARS",
            "F",
            "WHITE",
            "NOT HISPANIC OR LATINO",
            "PLACEBO",
            "Placebo",
            "PLACEBO",
            "Placebo",
            "",
            "",
            "USA"
          ],
          [
            5,
            "CDISCPILOT01",
            "DM",
            "CDISC005",
            "1383",
            "2013-02-04",
            "2013-08-06",
            "2013-02-04",
            "2013-08-06",
            "2013-01-22",
            "2013-08-06",
            "",
            "",
            "701",
            "1941",
            72,
            "YEARS",
            "F",
            "WHITE",
            "NOT HISPANIC OR LATINO",
            "ZAN_HIGH",
            "Zanomaline High Dose (81 mg)",
            "ZAN_HIGH",
            "Zanomaline High Dose (81 mg)",
            "",
            "",
            "USA"
          ],
          [
            6,
            "CDISCPILOT01",
            "DM",
            "CDISC006",
            "1429",
            "2013-03-19",
            "2013-04-30",
            "2013-03-19",
            "2013-04-30",
            "2013-02-25",
            "2013-04-30",
            "",
            "",
            "701",
            "1929",
            84,
            "YEARS",
            "F",
            "WHITE",
            "NOT HISPANIC OR LATINO",
            "ZAN_LOW",
            "Zanomaline Low Dose (54 mg)",
            "ZAN_LOW",
            "Zanomaline Low Dose (54 mg)",
            "",
            "",
            "USA"
          ],
          [
            7,
            "CDISCPILOT01",
            "DM",
            "CDISC007",
            "1444",
            "2013-01-05",
            "2013-02-13",
            "2013-01-05",
            "2013-02-12",
            "2012-12-31",
            "2013-06-20",
            "",
            "",
            "701",
            "1949",
            63,
            "YEARS",
            "M",
            "WHITE",
            "HISPANIC OR LATINO",
            "ZAN_HIGH",
            "Zanomaline High Dose (81 mg)",
            "ZAN_HIGH",
            "Zanomaline High Dose (81 mg)",
            "",
            "",
            "USA"
          ],
          [
            8,
            "CDISCPILOT01",
            "DM",
            "CDISC008",
            "1445",
            "2014-05-11",
            "2014-11-01",
            "2014-05-11",
            "2014-11-01",
            "2014-05-01",
            "2014-11-01",
            "2014-11-01",
            "Y",
            "704",
            "1939",
            75,
            "YEARS",
            "M",
            "MULTIPLE",
            "NOT HISPANIC OR LATINO",
            "PLACEBO",
            "Placebo",
            "PLACEBO",
            "Placebo",
            "",
            "",
            "USA"
          ],
          [
            9,
            "CDISCPILOT01",
            "DM",
            "CDISC009",
            "1087",
            "2012-10-22",
            "2013-04-28",
            "2012-10-22",
            "2013-04-28",
            "2012-10-06",
            "2013-04-28",
            "",
            "",
            "708",
            "1938",
            74,
            "YEARS",
            "F",
            "WHITE",
            "NOT HISPANIC OR LATINO",
            "PLACEBO",
            "Placebo",
            "PLACEBO",
            "Placebo",
            "",
            "",
            "USA"
          ],
          [
            10,
            "CDISCPILOT01",
            "DM",
            "CDISC010",
            "1236",
            "2013-09-21",
            "2013-09-26",
            "2013-09-21",
            "2013-09-21",
            "2013-09-08",
            "2013-09-26",
            "",
            "",
            "708",
            "1927",
            86,
            "YEARS",
            "F",
            "WHITE",
            "NOT HISPANIC OR LATINO",
            "ZAN_HIGH",
            "Zanomaline High Dose (81 mg)",
            "ZAN_HIGH",
            "Zanomaline High Dose (81 mg)",
            "",
            "",
            "USA"
          ],
          [
            11,
            "CDISCPILOT01",
            "DM",
            "CDISC011",
            "1336",
            "2012-12-07",
            "2013-06-05",
            "2012-12-07",
            "2013-06-05",
            "2012-11-21",
            "2013-07-05",
            "",
            "",
            "708",
            "1939",
            73,
            "YEARS",
            "M",
            "WHITE",
            "NOT HISPANIC OR LATINO",
            "ZAN_HIGH",
            "Zanomaline High Dose (81 mg)",
            "ZAN_HIGH",
            "Zanomaline High Dose (81 mg)",
            "",
            "",
            "USA"
          ],
          [
            12,
            "CDISCPILOT01",
            "DM",
            "CDISC012",
            "1378",
            "2013-09-03",
            "2014-01-28",
            "2013-09-03",
            "2014-01-28",
            "2013-08-24",
            "2014-01-28",
            "",
            "",
            "708",
            "1946",
            67,
            "YEARS",
            "M",
            "BLACK OR AFRICAN AMERICAN",
            "NOT HISPANIC OR LATINO",
            "PLACEBO",
            "Placebo",
            "PLACEBO",
            "Placebo",
            "",
            "",
            "USA"
          ],
          [
            13,
            "CDISCPILOT01",
            "DM",
            "CDISC013",
            "1083",
            "2013-07-22",
            "2013-08-03",
            "2013-07-22",
            "2013-08-01",
            "2013-07-09",
            "2013-08-03",
            "2013-08-03",
            "Y",
            "710",
            "1924",
            89,
            "YEARS",
            "F",
            "WHITE",
            "NOT HISPANIC OR LATINO",
            "PLACEBO",
            "Placebo",
            "PLACEBO",
            "Placebo",
            "",
            "",
            "USA"
          ],
          [
            14,
            "CDISCPILOT01",
            "DM",
            "CDISC014",
            "1012",
            "2013-04-03",
            "2013-05-02",
            "2013-04-03",
            "2013-04-29",
            "2013-03-20",
            "2013-09-18",
            "",
            "",
            "711",
            "1945",
            67,
            "YEARS",
            "F",
            "WHITE",
            "NOT HISPANIC OR LATINO",
            "ZAN_HIGH",
            "Zanomaline High Dose (81 mg)",
            "ZAN_HIGH",
            "Zanomaline High Dose (81 mg)",
            "",
            "",
            "USA"
          ],
          [
            15,
            "CDISCPILOT01",
            "DM",
            "CDISC015",
            "1022",
            "",
            "",
            "",
            "",
            "2014-03-17",
            "2014-03-17",
            "",
            "",
            "711",
            "1928",
            86,
            "YEARS",
            "F",
            "WHITE",
            "NOT HISPANIC OR LATINO",
            "",
            "",
            "",
            "",
            "SCREEN FAILURE",
            "",
            "USA"
          ],
          [
            16,
            "CDISCPILOT01",
            "DM",
            "CDISC016",
            "1143",
            "2013-04-03",
            "2013-06-01",
            "2013-04-03",
            "2013-05-30",
            "2013-03-30",
            "2013-09-22",
            "",
            "",
            "711",
            "1936",
            76,
            "YEARS",
            "F",
            "WHITE",
            "NOT HISPANIC OR LATINO",
            "ZAN_LOW",
            "Zanomaline Low Dose (54 mg)",
            "ZAN_LOW",
            "Zanomaline Low Dose (54 mg)",
            "",
            "",
            "USA"
          ],
          [
            17,
            "CDISCPILOT01",
            "DM",
            "CDISC017",
            "1250",
            "2013-09-21",
            "2014-02-08",
            "2013-09-21",
            "2014-01-31",
            "2013-08-21",
            "2014-03-08",
            "",
            "",
            "718",
            "1931",
            82,
            "YEARS",
            "F",
            "WHITE",
            "HISPANIC OR LATINO",
            "ZAN_LOW",
            "Zanomaline Low Dose (54 mg)",
            "ZAN_LOW",
            "Zanomaline Low Dose (54 mg)",
            "",
            "",
            "USA"
          ],
          [
            18,
            "CDISCPILOT01",
            "DM",
            "CDISC018",
            "1427",
            "2012-12-17",
            "2013-02-18",
            "2012-12-17",
            "2013-02-11",
            "2012-12-13",
            "2013-06-03",
            "",
            "",
            "718",
            "1938",
            74,
            "YEARS",
            "F",
            "BLACK OR AFRICAN AMERICAN",
            "NOT HISPANIC OR LATINO",
            "ZAN_HIGH",
            "Zanomaline High Dose (81 mg)",
            "ZAN_HIGH",
            "Zanomaline High Dose (81 mg)",
            "",
            "",
            "USA"
          ]
        ]
      }
    }
  }
}
