{
  "creationDateTime": "2023-06-22T15:03:39",
  "datasetJSONVersion": "1.0.0",
  "clinicalData": {
    "studyOID": "LZZT",
    "metaDataVersionOID": "CDISC.SDTMIG.3.1.2",
    "itemGroupData": {
      "AE": {
        "records": 1191,
        "name": "AE",
        "label": "Adverse Events",
        "items": [
          {
            "OID": "ITEMGROUPDATASEQ",
            "name": "ITEMGROUPDATASEQ",
            "label": "Record Identifier",
            "type": "integer"
          },
          {
            "OID": "AE.STUDYID",
            "name": "STUDYID",
            "label": "Study Identifier",
            "type": "string",
            "length": 12
          },
          {
            "OID": "AE.DOMAIN",
            "name": "DOMAIN",
            "label": "Domain Abbreviation",
            "type": "string",
            "length": 2
          },
          {
            "OID": "AE.USUBJID",
            "name": "USUBJID",
            "label": "Unique Subject Identifier",
            "type": "string",
            "length": 11
          },
          {
            "OID": "AE.AESEQ",
            "name": "AESEQ",
            "label": "Sequence Number",
            "type": "integer",
            "length": 8
          },
          {
            "OID": "AE.AESPID",
            "name": "AESPID",
            "label": "Sponsor-Defined Identifier",
            "type": "string",
            "length": 3
          },
          {
            "OID": "AE.AETERM",
            "name": "AETERM",
            "label": "Reported Term for the Adverse Event",
            "type": "string",
            "length": 200
          },
          {
            "OID": "AE.AELLT",
            "name": "AELLT",
            "label": "Lowest Level Term",
            "type": "string",
            "length": 100
          },
          {
            "OID": "AE.AELLTCD",
            "name": "AELLTCD",
            "label": "Lowest Level Term Code",
            "type": "integer",
            "length": 8
          },
          {
            "OID": "AE.AEDECOD",
            "name": "AEDECOD",
            "label": "Dictionary-Derived Term",
            "type": "string",
            "length": 200
          },
          {
            "OID": "AE.AEPTCD",
            "name": "AEPTCD",
            "label": "Preferred Term Code",
            "type": "integer",
            "length": 8
          },
          {
            "OID": "AE.AEHLT",
            "name": "AEHLT",
            "label": "High Level Term",
            "type": "string",
            "length": 100
          },
          {
            "OID": "AE.AEHLTCD",
            "name": "AEHLTCD",
            "label": "High Level Term Code",
            "type": "integer",
            "length": 8
          },
          {
            "OID": "AE.AEHLGT",
            "name": "AEHLGT",
            "label": "High Level Group Term",
            "type": "string",
            "length": 100
          },
          {
            "OID": "AE.AEHLGTCD",
            "name": "AEHLGTCD",
            "label": "High Level Group Term Code",
            "type": "integer",
            "length": 8
          },
          {
            "OID": "AE.AEBODSYS",
            "name": "AEBODSYS",
            "label": "Body System or Organ Class",
            "type": "string",
            "length": 67
          },
          {
            "OID": "AE.AEBDSYCD",
            "name": "AEBDSYCD",
            "label": "Body System or Organ Class Code",
            "type": "integer",
            "length": 8
          },
          {
            "OID": "AE.AESOC",
            "name": "AESOC",
            "label": "Primary System Organ Class",
            "type": "string",
            "length": 100
          },
          {
            "OID": "AE.AESOCCD",
            "name": "AESOCCD",
            "label": "Primary System Organ Class Code",
            "type": "integer",
            "length": 8
          },
          {
            "OID": "AE.AESEV",
            "name": "AESEV",
            "label": "Severity/Intensity",
            "type": "string",
            "length": 8
          },
          {
            "OID": "AE.AESER",
            "name": "AESER",
            "label": "Serious Event",
            "type": "string",
            "length": 1
          },
          {
            "OID": "AE.AEACN",
            "name": "AEACN",
            "label": "Action Taken with Study Treatment",
            "type": "string",
            "length": 30
          },
          {
            "OID": "AE.AEREL",
            "name": "AEREL",
            "label": "Causality",
            "type": "string",
            "length": 8
          },
          {
            "OID": "AE.AEOUT",
            "name": "AEOUT",
            "label": "Outcome of Adverse Event",
            "type": "string",
            "length": 200
          },
          {
            "OID": "AE.AESCAN",
            "name": "AESCAN",
            "label": "Involves Cancer",
            "type": "string",
            "length": 1
          },
          {
            "OID": "AE.AESCONG",
            "name": "AESCONG",
            "label": "Congenital Anomaly or Birth Defect",
            "type": "string",
            "length": 1
          },
          {
            "OID": "AE.AESDISAB",
            "name": "AESDISAB",
            "label": "Persist or Signif Disability/Incapacity",
            "type": "string",
            "length": 1
          },
          {
            "OID": "AE.AESDTH",
            "name": "AESDTH",
            "label": "Results in Death",
            "type": "string",
            "length": 1
          },
          {
            "OID": "AE.AESHOSP",
            "name": "AESHOSP",
            "label": "Requires or Prolongs Hospitalization",
            "type": "string",
            "length": 1
          },
          {
            "OID": "AE.AESLIFE",
            "name": "AESLIFE",
            "label": "Is Life Threatening",
            "type": "string",
            "length": 1
          },
          {
            "OID": "AE.AESOD",
            "name": "AESOD",
            "label": "Occurred with Overdose",
            "type": "string",
            "length": 1
          },
          {
            "OID": "AE.AEDTC",
            "name": "AEDTC",
            "label": "Date/Time of Collection",
            "type": "string",
            "length": 10
          },
          {
            "OID": "AE.AESTDTC",
            "name": "AESTDTC",
            "label": "Start Date/Time of Adverse Event",
            "type": "string",
            "length": 10
          },
          {
            "OID": "AE.AEENDTC",
            "name": "AEENDTC",
            "label": "End Date/Time of Adverse Event",
            "type": "string",
            "length": 10
          },
          {
            "OID": "AE.AESTDY",
            "name": "AESTDY",
            "label": "Study Day of Start of Adverse Event",
            "type": "integer",
            "length": 8
          },
          {
            "OID": "AE.AEENDY",
            "name": "AEENDY",
            "label": "Study Day of End of Adverse Event",
            "type": "integer",
            "length": 8
          },
          {
            "OID": "AE.AETRTEM",
            "name": "AETRTEM",
            "label": "TREATMENT EMERGENT FLAG",
            "type": "string",
            "length": 1
          }
        ],
        "itemData": [
          [
            1,
            "CDISCPILOT01",
            "AE",
            "01-701-1015",
            1,
            "E07",
            "アプリケーションサイトの紅斑",
            "APPLICATION SITE REDNESS",
            null,
            "APPLICATION SITE ERYTHEMA",
            12345678,
            "HLT_0617",
            12345678,
            "HLGT_0152",
            12345678,
            "GENERAL DISORDERS AND ADMINISTRATION SITE CONDITIONS",
            87654321,
            "GENERAL DISORDERS AND ADMINISTRATION SITE CONDITIONS",
            null,
            "MILD",
            "N",
            "",
            "PROBABLE",
            "NOT RECOVERED/NOT RESOLVED",
            "N",
            "N",
            "N",
            "N",
            "N",
            "N",
            "N",
            "2014-01-16",
            "2014-01-03",
            "",
            2,
            null,
            "Y"
          ],
          [
            2,
            "CDISCPILOT01",
            "AE",
            "01-701-1015",
            2,
            "E08",
            "アプリケーションサイトのかゆみ",
            "APPLICATION SITE ITCHING",
            null,
            "APPLICATION SITE PRURITUS",
            null,
            "HLT_0317",
            null,
            "HLGT_0338",
            null,
            "GENERAL DISORDERS AND ADMINISTRATION SITE CONDITIONS",
            null,
            "GENERAL DISORDERS AND ADMINISTRATION SITE CONDITIONS",
            null,
            "MILD",
            "N",
            "",
            "PROBABLE",
            "NOT RECOVERED/NOT RESOLVED",
            "N",
            "N",
            "N",
            "N",
            "N",
            "N",
            "N",
            "2014-01-16",
            "2014-01-03",
            "",
            2,
            null,
            "Y"
          ],
          [
            3,
            "CDISCPILOT01",
            "AE",
            "01-701-1015",
            3,
            "E06",
            "下痢",
            "DIARRHEA",
            null,
            "DIARRHOEA",
            10012735,
            "Diarrhoea (excl infective)",
            10012736,
            "Gastrointestinal infections",
            10017966,
            "GASTROINTESTINAL DISORDERS",
            10017947,
            "GASTROINTESTINAL DISORDERS",
            null,
            "MILD",
            "N",
            "",
            "REMOTE",
            "RECOVERED/RESOLVED",
            "N",
            "N",
            "N",
            "N",
            "N",
            "N",
            "N",
            "2014-01-16",
            "2014-01-09",
            "2014-01-11",
            8,
            10,
            "Y"
          ],
          [
            4,
            "CDISCPILOT01",
            "AE",
            "01-701-1023",
            3,
            "E10",
            "房室ブロック2度房室ブロック",
            "AV BLOCK SECOND DEGREE",
            null,
            "ATRIOVENTRICULAR BLOCK SECOND DEGREE",
            null,
            "HLT_0415",
            null,
            "HLGT_0086",
            null,
            "CARDIAC DISORDERS",
            null,
            "CARDIAC DISORDERS",
            null,
            "MILD",
            "N",
            "",
            "POSSIBLE",
            "NOT RECOVERED/NOT RESOLVED",
            "N",
            "N",
            "N",
            "N",
            "N",
            "N",
            "N",
            "2012-08-27",
            "2012-08-26",
            "",
            22,
            null,
            "Y"
          ],
          [
            5,
            "CDISCPILOT01",
            "AE",
            "01-701-1023",
            1,
            "E08",
            "紅斑 ",
            "ERYTHEMA",
            null,
            "ERYTHEMA",
            null,
            "HLT_0284",
            null,
            "HLGT_0192",
            null,
            "SKIN AND SUBCUTANEOUS TISSUE DISORDERS",
            null,
            "SKIN AND SUBCUTANEOUS TISSUE DISORDERS",
            null,
            "MILD",
            "N",
            "",
            "POSSIBLE",
            "NOT RECOVERED/NOT RESOLVED",
            "N",
            "N",
            "N",
            "N",
            "N",
            "N",
            "N",
            "2012-08-27",
            "2012-08-07",
            "2012-08-30",
            3,
            26,
            "Y"
          ],
          [
            6,
            "CDISCPILOT01",
            "AE",
            "01-701-1023",
            2,
            "E09",
            "紅斑 ",
            "LOCALIZED ERYTHEMA",
            null,
            "ERYTHEMA",
            null,
            "HLT_0284",
            null,
            "HLGT_0192",
            null,
            "SKIN AND SUBCUTANEOUS TISSUE DISORDERS",
            null,
            "SKIN AND SUBCUTANEOUS TISSUE DISORDERS",
            null,
            "MODERATE",
            "N",
            "",
            "PROBABLE",
            "NOT RECOVERED/NOT RESOLVED",
            "N",
            "N",
            "N",
            "N",
            "N",
            "N",
            "N",
            "2012-08-27",
            "2012-08-07",
            "",
            3,
            null,
            "Y"
          ],
          [
            7,
            "CDISCPILOT01",
            "AE",
            "01-701-1023",
            4,
            "E08",
            "紅斑 ",
            "ERYTHEMA",
            null,
            "ERYTHEMA",
            null,
            "HLT_0284",
            null,
            "HLGT_0192",
            null,
            "SKIN AND SUBCUTANEOUS TISSUE DISORDERS",
            null,
            "SKIN AND SUBCUTANEOUS TISSUE DISORDERS",
            null,
            "MILD",
            "N",
            "",
            "POSSIBLE",
            "RECOVERED/RESOLVED",
            "N",
            "N",
            "N",
            "N",
            "N",
            "N",
            "N",
            "2012-09-02",
            "2012-08-07",
            "2012-08-30",
            3,
            26,
            "Y"
          ],
          [
            8,
            "CDISCPILOT01",
            "AE",
            "01-701-1028",
            1,
            "E04",
            "アプリケーションサイトの紅斑",
            "APPLICATION SITE ERYTHEMA",
            null,
            "APPLICATION SITE ERYTHEMA",
            null,
            "HLT_0617",
            null,
            "HLGT_0152",
            null,
            "GENERAL DISORDERS AND ADMINISTRATION SITE CONDITIONS",
            null,
            "GENERAL DISORDERS AND ADMINISTRATION SITE CONDITIONS",
            null,
            "MILD",
            "N",
            "",
            "POSSIBLE",
            "NOT RECOVERED/NOT RESOLVED",
            "N",
            "N",
            "N",
            "N",
            "N",
            "N",
            "N",
            "2013-08-01",
            "2013-07-21",
            "",
            3,
            null,
            "Y"
          ],
          [
            9,
            "CDISCPILOT01",
            "AE",
            "01-701-1028",
            2,
            "E05",
            "アプリケーションサイトのかゆみ",
            "APPLICATION SITE ITCHING",
            null,
            "APPLICATION SITE PRURITUS",
            null,
            "HLT_0317",
            null,
            "HLGT_0338",
            null,
            "GENERAL DISORDERS AND ADMINISTRATION SITE CONDITIONS",
            null,
            "GENERAL DISORDERS AND ADMINISTRATION SITE CONDITIONS",
            null,
            "MILD",
            "N",
            "",
            "PROBABLE",
            "NOT RECOVERED/NOT RESOLVED",
            "N",
            "N",
            "N",
            "N",
            "N",
            "N",
            "N",
            "2013-08-14",
            "2013-08-08",
            "",
            21,
            null,
            "Y"
          ],
          [
            10,
            "CDISCPILOT01",
            "AE",
            "01-701-1034",
            1,
            "E08",
            "アプリケーションサイトのかゆみ",
            "APPLICATION SITE ITCHING",
            null,
            "APPLICATION SITE PRURITUS",
            null,
            "HLT_0317",
            null,
            "HLGT_0338",
            null,
            "GENERAL DISORDERS AND ADMINISTRATION SITE CONDITIONS",
            null,
            "GENERAL DISORDERS AND ADMINISTRATION SITE CONDITIONS",
            null,
            "MILD",
            "N",
            "",
            "PROBABLE",
            "NOT RECOVERED/NOT RESOLVED",
            "N",
            "N",
            "N",
            "N",
            "N",
            "N",
            "N",
            "2014-09-25",
            "2014-08-27",
            "",
            58,
            null,
            "Y"
          ],
          [
            11,
            "CDISCPILOT01",
            "AE",
            "01-701-1034",
            2,
            "E07",
            "倦怠感",
            "FATIGUE",
            null,
            "FATIGUE",
            null,
            "HLT_0043",
            null,
            "HLGT_0181",
            null,
            "GENERAL DISORDERS AND ADMINISTRATION SITE CONDITIONS",
            null,
            "GENERAL DISORDERS AND ADMINISTRATION SITE CONDITIONS",
            null,
            "MILD",
            "N",
            "",
            "POSSIBLE",
            "NOT RECOVERED/NOT RESOLVED",
            "N",
            "N",
            "N",
            "N",
            "N",
            "N",
            "N",
            "2014-11-18",
            "2014-11-02",
            "",
            125,
            null,
            "Y"
          ],
          [
            12,
            "CDISCPILOT01",
            "AE",
            "01-701-1047",
            4,
            "E09",
            "BUNDLE BRANCH BLOCK LEFT",
            "LEFT BUNDLE BRANCH BLOCK",
            null,
            "BUNDLE BRANCH BLOCK LEFT",
            null,
            "HLT_0281",
            null,
            "HLGT_0721",
            null,
            "CARDIAC DISORDERS",
            null,
            "CARDIAC DISORDERS",
            null,
            "MILD",
            "N",
            "",
            "NONE",
            "NOT RECOVERED/NOT RESOLVED",
            "N",
            "N",
            "N",
            "N",
            "N",
            "N",
            "N",
            "2013-03-10",
            "2013-03-10",
            "",
            27,
            null,
            "Y"
          ],
          [
            13,
            "CDISCPILOT01",
            "AE",
            "01-701-1047",
            1,
            "E06",
            "裂孔ヘルニア",
            "HERNIA HIATAL",
            null,
            "HIATUS HERNIA",
            null,
            "HLT_0159",
            null,
            "HLGT_0109",
            null,
            "GASTROINTESTINAL DISORDERS",
            null,
            "GASTROINTESTINAL DISORDERS",
            null,
            "MODERATE",
            "N",
            "",
            "NONE",
            "NOT RECOVERED/NOT RESOLVED",
            "N",
            "N",
            "N",
            "N",
            "N",
            "N",
            "N",
            "2013-02-12",
            "2013-02-12",
            "2013-02-12",
            1,
            1,
            "Y"
          ],
          [
            14,
            "CDISCPILOT01",
            "AE",
            "01-701-1047",
            2,
            "E06",
            "裂孔ヘルニア",
            "HERNIA HIATAL",
            null,
            "HIATUS HERNIA",
            null,
            "HLT_0159",
            null,
            "HLGT_0109",
            null,
            "GASTROINTESTINAL DISORDERS",
            null,
            "GASTROINTESTINAL DISORDERS",
            null,
            "MODERATE",
            "N",
            "",
            "NONE",
            "RECOVERED/RESOLVED",
            "N",
            "N",
            "N",
            "N",
            "N",
            "N",
            "N",
            "2013-02-25",
            "2013-02-12",
            "2013-02-12",
            1,
            1,
            "Y"
          ],
          [
            15,
            "CDISCPILOT01",
            "AE",
            "01-701-1047",
            4,
            "E08",
            "UPPER RESPIRATORY TRACT INFECTION",
            "UPPER RESPIRATORY INFECTION",
            null,
            "UPPER RESPIRATORY TRACT INFECTION",
            null,
            "HLT_0520",
            null,
            "HLGT_0489",
            null,
            "INFECTIONS AND INFESTATIONS",
            null,
            "INFECTIONS AND INFESTATIONS",
            null,
            "MILD",
            "N",
            "",
            "NONE",
            "NOT RECOVERED/NOT RESOLVED",
            "N",
            "N",
            "N",
            "N",
            "N",
            "N",
            "N",
            "2013-03-10",
            "2013-03-06",
            "",
            23,
            null,
            "Y"
          ],
          [
            16,
            "CDISCPILOT01",
            "AE",
            "01-701-1097",
            4,
            "E06",
            "アプリケーションサイトのかゆみ",
            "APPLICATION SITE ITCHING",
            null,
            "APPLICATION SITE PRURITUS",
            null,
            "HLT_0317",
            null,
            "HLGT_0338",
            null,
            "GENERAL DISORDERS AND ADMINISTRATION SITE CONDITIONS",
            null,
            "GENERAL DISORDERS AND ADMINISTRATION SITE CONDITIONS",
            null,
            "MILD",
            "N",
            "",
            "POSSIBLE",
            "NOT RECOVERED/NOT RESOLVED",
            "N",
            "N",
            "N",
            "N",
            "N",
            "N",
            "N",
            "2014-02-26",
            "2014-02-21",
            "",
            52,
            null,
            "Y"
          ],
          [
            17,
            "CDISCPILOT01",
            "AE",
            "01-701-1097",
            10,
            "E06",
            "アプリケーションサイトのかゆみ",
            "APPLICATION SITE ITCHING",
            null,
            "APPLICATION SITE PRURITUS",
            null,
            "HLT_0317",
            null,
            "HLGT_0338",
            null,
            "GENERAL DISORDERS AND ADMINISTRATION SITE CONDITIONS",
            null,
            "GENERAL DISORDERS AND ADMINISTRATION SITE CONDITIONS",
            null,
            "MODERATE",
            "N",
            "",
            "POSSIBLE",
            "NOT RECOVERED/NOT RESOLVED",
            "N",
            "N",
            "N",
            "N",
            "N",
            "N",
            "N",
            "2014-05-21",
            "2014-02-21",
            "",
            52,
            null,
            "Y"
          ],
          [
            18,
            "CDISCPILOT01",
            "AE",
            "01-701-1097",
            3,
            "E07",
            "APPLICATION SITE VESICLES",
            "APPLICATION SITE BLISTER",
            null,
            "APPLICATION SITE VESICLES",
            null,
            "HLT_0180",
            null,
            "HLGT_0576",
            null,
            "GENERAL DISORDERS AND ADMINISTRATION SITE CONDITIONS",
            null,
            "GENERAL DISORDERS AND ADMINISTRATION SITE CONDITIONS",
            null,
            "MILD",
            "N",
            "",
            "PROBABLE",
            "RECOVERED/RESOLVED",
            "N",
            "N",
            "N",
            "N",
            "N",
            "N",
            "N",
            "2014-02-26",
            "2014-02-20",
            "2014-02-22",
            51,
            53,
            "Y"
          ],
          [
            19,
            "CDISCPILOT01",
            "AE",
            "01-701-1097",
            1,
            "E04",
            "紅斑 ",
            "ERYTHEMA",
            null,
            "ERYTHEMA",
            null,
            "HLT_0284",
            null,
            "HLGT_0192",
            null,
            "SKIN AND SUBCUTANEOUS TISSUE DISORDERS",
            null,
            "SKIN AND SUBCUTANEOUS TISSUE DISORDERS",
            null,
            "MILD",
            "N",
            "",
            "POSSIBLE",
            "NOT RECOVERED/NOT RESOLVED",
            "N",
            "N",
            "N",
            "N",
            "N",
            "N",
            "N",
            "2014-01-15",
            "2014-01-03",
            "",
            3,
            null,
            "Y"
          ],
          [
            20,
            "CDISCPILOT01",
            "AE",
            "01-701-1097",
            9,
            "E11",
            "鼻詰まり",
            "NASAL CONGESTION",
            null,
            "NASAL CONGESTION",
            null,
            "HLT_0118",
            null,
            "HLGT_0549",
            null,
            "RESPIRATORY THORACIC AND MEDIASTINAL DISORDERS",
            null,
            "RESPIRATORY THORACIC AND MEDIASTINAL DISORDERS",
            null,
            "MILD",
            "N",
            "",
            "NONE",
            "RECOVERED/RESOLVED",
            "N",
            "N",
            "N",
            "N",
            "N",
            "N",
            "N",
            "2014-04-23",
            "2014-04-19",
            "2014-04-22",
            109,
            112,
            "Y"
          ],
          [
            21,
            "CDISCPILOT01",
            "AE",
            "01-701-1097",
            8,
            "E10",
            "PHARYNGOLARYNGEAL PAIN",
            "SORE THROAT",
            null,
            "PHARYNGOLARYNGEAL PAIN",
            null,
            "HLT_0130",
            null,
            "HLGT_0402",
            null,
            "RESPIRATORY THORACIC AND MEDIASTINAL DISORDERS",
            null,
            "RESPIRATORY THORACIC AND MEDIASTINAL DISORDERS",
            null,
            "MILD",
            "N",
            "",
            "NONE",
            "RECOVERED/RESOLVED",
            "N",
            "N",
            "N",
            "N",
            "N",
            "N",
            "N",
            "2014-04-23",
            "2014-04-19",
            "2014-04-22",
            109,
            112,
            "Y"
          ],
          [
            22,
            "CDISCPILOT01",
            "AE",
            "01-701-1097",
            2,
            "E05",
            "かゆみが一般化",
            "GENERALIZED PRURITUS",
            null,
            "PRURITUS GENERALISED",
            null,
            "HLT_0123",
            null,
            "HLGT_0689",
            null,
            "SKIN AND SUBCUTANEOUS TISSUE DISORDERS",
            null,
            "SKIN AND SUBCUTANEOUS TISSUE DISORDERS",
            null,
            "MODERATE",
            "N",
            "",
            "POSSIBLE",
            "RECOVERED/RESOLVED",
            "N",
            "N",
            "N",
            "N",
            "N",
            "N",
            "N",
            "2014-02-26",
            "2014-02-20",
            "2014-02-20",
            51,
            51,
            "Y"
          ],
          [
            23,
            "CDISCPILOT01",
            "AE",
            "01-701-1097",
            5,
            "E08",
            "かゆみが一般化",
            "GENERALIZED PRURITUS",
            null,
            "PRURITUS GENERALISED",
            null,
            "HLT_0123",
            null,
            "HLGT_0689",
            null,
            "SKIN AND SUBCUTANEOUS TISSUE DISORDERS",
            null,
            "SKIN AND SUBCUTANEOUS TISSUE DISORDERS",
            null,
            "MODERATE",
            "N",
            "",
            "POSSIBLE",
            "RECOVERED/RESOLVED",
            "N",
            "N",
            "N",
            "N",
            "N",
            "N",
            "N",
            "2014-03-26",
            "2014-03-21",
            "2014-03-21",
            80,
            80,
            "Y"
          ],
          [
            24,
            "CDISCPILOT01",
            "AE",
            "01-701-1097",
            6,
            "E12",
            "かゆみが一般化",
            "GENERALIZED PRURITUS",
            null,
            "PRURITUS GENERALISED",
            null,
            "HLT_0123",
            null,
            "HLGT_0689",
            null,
            "SKIN AND SUBCUTANEOUS TISSUE DISORDERS",
            null,
            "SKIN AND SUBCUTANEOUS TISSUE DISORDERS",
            null,
            "MODERATE",
            "N",
            "",
            "POSSIBLE",
            "RECOVERED/RESOLVED",
            "N",
            "N",
            "N",
            "N",
            "N",
            "N",
            "N",
            "2014-04-23",
            "2014-03-31",
            "2014-03-31",
            90,
            90,
            "Y"
          ],
          [
            25,
            "CDISCPILOT01",
            "AE",
            "01-701-1097",
            7,
            "E09",
            "かゆみが一般化",
            "GENERALIZED PRURITUS",
            null,
            "PRURITUS GENERALISED",
            null,
            "HLT_0123",
            null,
            "HLGT_0689",
            null,
            "SKIN AND SUBCUTANEOUS TISSUE DISORDERS",
            null,
            "SKIN AND SUBCUTANEOUS TISSUE DISORDERS",
            null,
            "MODERATE",
            "N",
            "",
            "POSSIBLE",
            "RECOVERED/RESOLVED",
            "N",
            "N",
            "N",
            "N",
            "N",
            "N",
            "N",
            "2014-04-23",
            "2014-04-19",
            "2014-04-20",
            109,
            110,
            "Y"
          ],
          [
            26,
            "CDISCPILOT01",
            "AE",
            "01-701-1111",
            7,
            "E16",
            "関節痛 ",
            "GENERALIZED JOINT PAIN",
            null,
            "ARTHRALGIA",
            null,
            "HLT_0375",
            null,
            "HLGT_0610",
            null,
            "MUSCULOSKELETAL AND CONNECTIVE TISSUE DISORDERS",
            null,
            "MUSCULOSKELETAL AND CONNECTIVE TISSUE DISORDERS",
            null,
            "MODERATE",
            "N",
            "",
            "NONE",
            "NOT RECOVERED/NOT RESOLVED",
            "N",
            "N",
            "N",
            "N",
            "N",
            "N",
            "N",
            "2012-09-17",
            "2012-09-13",
            "",
            7,
            null,
            "Y"
          ],
          [
            27,
            "CDISCPILOT01",
            "AE",
            "01-701-1111",
            8,
            "E17",
            "蜂巣炎",
            "CELLULITIS OF LEG",
            null,
            "CELLULITIS",
            null,
            "HLT_0613",
            null,
            "HLGT_0066",
            null,
            "INFECTIONS AND INFESTATIONS",
            null,
            "INFECTIONS AND INFESTATIONS",
            null,
            "MODERATE",
            "N",
            "",
            "NONE",
            "NOT RECOVERED/NOT RESOLVED",
            "N",
            "N",
            "N",
            "N",
            "N",
            "N",
            "N",
            "2012-09-17",
            "2012-09-13",
            "",
            7,
            null,
            "Y"
          ],
          [
            28,
            "CDISCPILOT01",
            "AE",
            "01-701-1111",
            1,
            "E14",
            "紅斑 ",
            "ERYTHEMA",
            null,
            "ERYTHEMA",
            null,
            "HLT_0284",
            null,
            "HLGT_0192",
            null,
            "SKIN AND SUBCUTANEOUS TISSUE DISORDERS",
            null,
            "SKIN AND SUBCUTANEOUS TISSUE DISORDERS",
            null,
            "MILD",
            "N",
            "",
            "NONE",
            "NOT RECOVERED/NOT RESOLVED",
            "N",
            "N",
            "N",
            "N",
            "N",
            "N",
            "N",
            "2012-09-05",
            "2012-09-02",
            "2012-09-07",
            -5,
            1,
            "N"
          ],
          [
            29,
            "CDISCPILOT01",
            "AE",
            "01-701-1111",
            4,
            "E14",
            "紅斑 ",
            "ERYTHEMA",
            null,
            "ERYTHEMA",
            null,
            "HLT_0284",
            null,
            "HLGT_0192",
            null,
            "SKIN AND SUBCUTANEOUS TISSUE DISORDERS",
            null,
            "SKIN AND SUBCUTANEOUS TISSUE DISORDERS",
            null,
            "MILD",
            "N",
            "",
            "NONE",
            "RECOVERED/RESOLVED",
            "N",
            "N",
            "N",
            "N",
            "N",
            "N",
            "N",
            "2012-09-17",
            "2012-09-02",
            "2012-09-07",
            -5,
            1,
            "N"
          ],
          [
            30,
            "CDISCPILOT01",
            "AE",
            "01-701-1111",
            3,
            "E06",
            "LOCALISED INFECTION",
            "LOCALIZED INFECTION",
            null,
            "LOCALISED INFECTION",
            null,
            "HLT_0435",
            null,
            "HLGT_0557",
            null,
            "INFECTIONS AND INFESTATIONS",
            null,
            "INFECTIONS AND INFESTATIONS",
            null,
            "MODERATE",
            "N",
            "",
            "NONE",
            "NOT RECOVERED/NOT RESOLVED",
            "N",
            "N",
            "N",
            "N",
            "N",
            "N",
            "N",
            "2012-09-17",
            "2012-07-08",
            "",
            -61,
            null,
            "N"
          ],
          [
            31,
            "CDISCPILOT01",
            "AE",
            "01-701-1111",
            6,
            "E18",
            "MICTURITION URGENCY",
            "URINARY URGENCY",
            null,
            "MICTURITION URGENCY",
            null,
            "HLT_0294",
            null,
            "HLGT_0483",
            null,
            "RENAL AND URINARY DISORDERS",
            null,
            "RENAL AND URINARY DISORDERS",
            null,
            "MILD",
            "N",
            "",
            "NONE",
            "NOT RECOVERED/NOT RESOLVED",
            "N",
            "N",
            "N",
            "N",
            "N",
            "N",
            "N",
            "2012-09-17",
            "2012-09-07",
            "",
            1,
            null,
            "Y"
          ],
          [
            32,
            "CDISCPILOT01",
            "AE",
            "01-701-1111",
            2,
            "E15",
            "かゆみ",
            "ITCHING",
            null,
            "PRURITUS",
            null,
            "HLT_0778",
            null,
            "HLGT_0695",
            null,
            "SKIN AND SUBCUTANEOUS TISSUE DISORDERS",
            null,
            "SKIN AND SUBCUTANEOUS TISSUE DISORDERS",
            null,
            "MILD",
            "N",
            "",
            "NONE",
            "NOT RECOVERED/NOT RESOLVED",
            "N",
            "N",
            "N",
            "N",
            "N",
            "N",
            "N",
            "2012-09-05",
            "2012-09-02",
            "2012-09-07",
            -5,
            1,
            "N"
          ],
          [
            33,
            "CDISCPILOT01",
            "AE",
            "01-701-1111",
            5,
            "E15",
            "かゆみ",
            "ITCHING",
            null,
            "PRURITUS",
            null,
            "HLT_0778",
            null,
            "HLGT_0695",
            null,
            "SKIN AND SUBCUTANEOUS TISSUE DISORDERS",
            null,
            "SKIN AND SUBCUTANEOUS TISSUE DISORDERS",
            null,
            "MILD",
            "N",
            "",
            "NONE",
            "RECOVERED/RESOLVED",
            "N",
            "N",
            "N",
            "N",
            "N",
            "N",
            "N",
            "2012-09-17",
            "2012-09-02",
            "2012-09-07",
            -5,
            1,
            "N"
          ],
          [
            34,
            "CDISCPILOT01",
            "AE",
            "01-701-1115",
            9,
            "E14",
            "APPLICATION SITE DERMATITIS",
            "APPLICATION SITE RASH",
            null,
            "APPLICATION SITE DERMATITIS",
            null,
            "HLT_0343",
            null,
            "HLGT_0241",
            null,
            "GENERAL DISORDERS AND ADMINISTRATION SITE CONDITIONS",
            null,
            "GENERAL DISORDERS AND ADMINISTRATION SITE CONDITIONS",
            null,
            "MODERATE",
            "N",
            "",
            "PROBABLE",
            "NOT RECOVERED/NOT RESOLVED",
            "N",
            "N",
            "N",
            "N",
            "N",
            "N",
            "N",
            "2013-01-23",
            "2013-01-19",
            "",
            51,
            null,
            "Y"
          ],
          [
            35,
            "CDISCPILOT01",
            "AE",
            "01-701-1115",
            1,
            "E09",
            "アプリケーションサイトの紅斑",
            "APPLICATION SITE REDNESS",
            null,
            "APPLICATION SITE ERYTHEMA",
            null,
            "HLT_0617",
            null,
            "HLGT_0152",
            null,
            "GENERAL DISORDERS AND ADMINISTRATION SITE CONDITIONS",
            null,
            "GENERAL DISORDERS AND ADMINISTRATION SITE CONDITIONS",
            null,
            "MILD",
            "N",
            "",
            "PROBABLE",
            "NOT RECOVERED/NOT RESOLVED",
            "N",
            "N",
            "N",
            "N",
            "N",
            "N",
            "N",
            "2012-12-13",
            "2012-12-02",
            "",
            3,
            null,
            "Y"
          ],
          [
            36,
            "CDISCPILOT01",
            "AE",
            "01-701-1115",
            5,
            "E09",
            "アプリケーションサイトの紅斑",
            "APPLICATION SITE REDNESS",
            null,
            "APPLICATION SITE ERYTHEMA",
            null,
            "HLT_0617",
            null,
            "HLGT_0152",
            null,
            "GENERAL DISORDERS AND ADMINISTRATION SITE CONDITIONS",
            null,
            "GENERAL DISORDERS AND ADMINISTRATION SITE CONDITIONS",
            null,
            "MODERATE",
            "N",
            "",
            "PROBABLE",
            "NOT RECOVERED/NOT RESOLVED",
            "N",
            "N",
            "N",
            "N",
            "N",
            "N",
            "N",
            "2013-01-23",
            "2012-12-02",
            "",
            3,
            null,
            "Y"
          ],
          [
            37,
            "CDISCPILOT01",
            "AE",
            "01-701-1115",
            3,
            "E10",
            "アプリケーションサイトの刺激",
            "APPLICATION SITE BURNING",
            null,
            "APPLICATION SITE IRRITATION",
            null,
            "HLT_0061",
            null,
            "HLGT_0346",
            null,
            "GENERAL DISORDERS AND ADMINISTRATION SITE CONDITIONS",
            null,
            "GENERAL DISORDERS AND ADMINISTRATION SITE CONDITIONS",
            null,
            "MILD",
            "N",
            "",
            "POSSIBLE",
            "NOT RECOVERED/NOT RESOLVED",
            "N",
            "N",
            "N",
            "N",
            "N",
            "N",
            "N",
            "2012-12-26",
            "2012-12-26",
            "2012-12-26",
            27,
            27,
            "Y"
          ],
          [
            38,
            "CDISCPILOT01",
            "AE",
            "01-701-1115",
            4,
            "E10",
            "アプリケーションサイトの刺激",
            "APPLICATION SITE BURNING",
            null,
            "APPLICATION SITE IRRITATION",
            null,
            "HLT_0061",
            null,
            "HLGT_0346",
            null,
            "GENERAL DISORDERS AND ADMINISTRATION SITE CONDITIONS",
            null,
            "GENERAL DISORDERS AND ADMINISTRATION SITE CONDITIONS",
            null,
            "MILD",
            "N",
            "",
            "POSSIBLE",
            "RECOVERED/RESOLVED",
            "N",
            "N",
            "N",
            "N",
            "N",
            "N",
            "N",
            "2012-12-28",
            "2012-12-26",
            "2012-12-26",
            27,
            27,
            "Y"
          ],
          [
            39,
            "CDISCPILOT01",
            "AE",
            "01-701-1115",
            8,
            "E12",
            "アプリケーションサイトの刺激",
            "APPLICATION SITE BURNING",
            null,
            "APPLICATION SITE IRRITATION",
            null,
            "HLT_0061",
            null,
            "HLGT_0346",
            null,
            "GENERAL DISORDERS AND ADMINISTRATION SITE CONDITIONS",
            null,
            "GENERAL DISORDERS AND ADMINISTRATION SITE CONDITIONS",
            null,
            "MODERATE",
            "N",
            "",
            "PROBABLE",
            "NOT RECOVERED/NOT RESOLVED",
            "N",
            "N",
            "N",
            "N",
            "N",
            "N",
            "N",
            "2013-01-23",
            "2013-01-19",
            "",
            51,
            null,
            "Y"
          ],
          [
            40,
            "CDISCPILOT01",
            "AE",
            "01-701-1115",
            2,
            "E11",
            "アプリケーションサイトのかゆみ",
            "APPLICATION SITE ITCHING",
            null,
            "APPLICATION SITE PRURITUS",
            null,
            "HLT_0317",
            null,
            "HLGT_0338",
            null,
            "GENERAL DISORDERS AND ADMINISTRATION SITE CONDITIONS",
            null,
            "GENERAL DISORDERS AND ADMINISTRATION SITE CONDITIONS",
            null,
            "MILD",
            "N",
            "",
            "PROBABLE",
            "NOT RECOVERED/NOT RESOLVED",
            "N",
            "N",
            "N",
            "N",
            "N",
            "N",
            "N",
            "2012-12-13",
            "2012-12-02",
            "",
            3,
            null,
            "Y"
          ],
          [
            41,
            "CDISCPILOT01",
            "AE",
            "01-701-1115",
            6,
            "E11",
            "アプリケーションサイトのかゆみ",
            "APPLICATION SITE ITCHING",
            null,
            "APPLICATION SITE PRURITUS",
            null,
            "HLT_0317",
            null,
            "HLGT_0338",
            null,
            "GENERAL DISORDERS AND ADMINISTRATION SITE CONDITIONS",
            null,
            "GENERAL DISORDERS AND ADMINISTRATION SITE CONDITIONS",
            null,
            "MODERATE",
            "N",
            "",
            "PROBABLE",
            "NOT RECOVERED/NOT RESOLVED",
            "N",
            "N",
            "N",
            "N",
            "N",
            "N",
            "N",
            "2013-01-23",
            "2012-12-02",
            "",
            3,
            null,
            "Y"
          ],
          [
            42,
            "CDISCPILOT01",
            "AE",
            "01-701-1115",
            7,
            "E13",
            "倦怠感",
            "FATIGUE",
            null,
            "FATIGUE",
            null,
            "HLT_0043",
            null,
            "HLGT_0181",
            null,
            "GENERAL DISORDERS AND ADMINISTRATION SITE CONDITIONS",
            null,
            "GENERAL DISORDERS AND ADMINISTRATION SITE CONDITIONS",
            null,
            "MODERATE",
            "N",
            "",
            "REMOTE",
            "NOT RECOVERED/NOT RESOLVED",
            "N",
            "N",
            "N",
            "N",
            "N",
            "N",
            "N",
            "2013-01-23",
            "2013-01-14",
            "",
            46,
            null,
            "Y"
          ],
          [
            43,
            "CDISCPILOT01",
            "AE",
            "01-701-1118",
            1,
            "E06",
            "咳",
            "COUGH",
            null,
            "COUGH",
            null,
            "HLT_0701",
            null,
            "HLGT_0280",
            null,
            "RESPIRATORY THORACIC AND MEDIASTINAL DISORDERS",
            null,
            "RESPIRATORY THORACIC AND MEDIASTINAL DISORDERS",
            null,
            "MILD",
            "N",
            "",
            "NONE",
            "NOT RECOVERED/NOT RESOLVED",
            "N",
            "N",
            "N",
            "N",
            "N",
            "N",
            "N",
            "2014-03-10",
            "2003",
            "",
            null,
            null,
            "N"
          ],
          [
            44,
            "CDISCPILOT01",
            "AE",
            "01-701-1130",
            5,
            "E09",
            "EYE ALLERGY",
            "EYE ALLERGY",
            null,
            "EYE ALLERGY",
            null,
            "HLT_0256",
            null,
            "HLGT_0071",
            null,
            "EYE DISORDERS",
            null,
            "EYE DISORDERS",
            null,
            "MILD",
            "N",
            "",
            "NONE",
            "RECOVERED/RESOLVED",
            "N",
            "N",
            "N",
            "N",
            "N",
            "N",
            "N",
            "2014-05-16",
            "2014-05-09",
            "2014-05-09",
            84,
            84,
            "Y"
          ],
          [
            45,
            "CDISCPILOT01",
            "AE",
            "01-701-1130",
            6,
            "E10",
            "EYE PRURITUS",
            "EYE ITCHING",
            null,
            "EYE PRURITUS",
            null,
            "HLT_0523",
            null,
            "HLGT_0240",
            null,
            "EYE DISORDERS",
            null,
            "EYE DISORDERS",
            null,
            "MILD",
            "N",
            "",
            "REMOTE",
            "NOT RECOVERED/NOT RESOLVED",
            "N",
            "N",
            "N",
            "N",
            "N",
            "N",
            "N",
            "2014-06-07",
            "2014-05-22",
            "",
            97,
            null,
            "Y"
          ],
          [
            46,
            "CDISCPILOT01",
            "AE",
            "01-701-1130",
            4,
            "E08",
            "EYE SWELLING",
            "EYES SWOLLEN",
            null,
            "EYE SWELLING",
            null,
            "HLT_0008",
            null,
            "HLGT_0466",
            null,
            "EYE DISORDERS",
            null,
            "EYE DISORDERS",
            null,
            "MILD",
            "N",
            "",
            "NONE",
            "RECOVERED/RESOLVED",
            "N",
            "N",
            "N",
            "N",
            "N",
            "N",
            "N",
            "2014-05-16",
            "2014-05-09",
            "2014-05-09",
            84,
            84,
            "Y"
          ],
          [
            47,
            "CDISCPILOT01",
            "AE",
            "01-701-1130",
            8,
            "E12",
            "鼻詰まり",
            "NASAL CONGESTION",
            null,
            "NASAL CONGESTION",
            null,
            "HLT_0118",
            null,
            "HLGT_0549",
            null,
            "RESPIRATORY THORACIC AND MEDIASTINAL DISORDERS",
            null,
            "RESPIRATORY THORACIC AND MEDIASTINAL DISORDERS",
            null,
            "MILD",
            "N",
            "",
            "REMOTE",
            "NOT RECOVERED/NOT RESOLVED",
            "N",
            "N",
            "N",
            "N",
            "N",
            "N",
            "N",
            "2014-06-07",
            "2014-05-22",
            "",
            97,
            null,
            "Y"
          ],
          [
            48,
            "CDISCPILOT01",
            "AE",
            "01-701-1130",
            7,
            "E11",
            "かゆみ",
            "ITCHING BOTH HANDS",
            null,
            "PRURITUS",
            null,
            "HLT_0778",
            null,
            "HLGT_0695",
            null,
            "SKIN AND SUBCUTANEOUS TISSUE DISORDERS",
            null,
            "SKIN AND SUBCUTANEOUS TISSUE DISORDERS",
            null,
            "MILD",
            "N",
            "",
            "REMOTE",
            "NOT RECOVERED/NOT RESOLVED",
            "N",
            "N",
            "N",
            "N",
            "N",
            "N",
            "N",
            "2014-06-07",
            "2014-05-22",
            "",
            97,
            null,
            "Y"
          ],
          [
            49,
            "CDISCPILOT01",
            "AE",
            "01-701-1130",
            2,
            "E07",
            "PYREXIA",
            "FEVER",
            null,
            "PYREXIA",
            null,
            "HLT_0310",
            null,
            "HLGT_0652",
            null,
            "GENERAL DISORDERS AND ADMINISTRATION SITE CONDITIONS",
            null,
            "GENERAL DISORDERS AND ADMINISTRATION SITE CONDITIONS",
            null,
            "MILD",
            "N",
            "",
            "NONE",
            "RECOVERED/RESOLVED",
            "N",
            "N",
            "N",
            "N",
            "N",
            "N",
            "N",
            "2014-03-15",
            "2014-03-09",
            "2014-03-09",
            23,
            23,
            "Y"
          ],
          [
            50,
            "CDISCPILOT01",
            "AE",
            "01-701-1130",
            1,
            "E06",
            "URINARY TRACT INFECTION",
            "URINARY TRACT INFECTION",
            null,
            "URINARY TRACT INFECTION",
            null,
            "HLT_0161",
            null,
            "HLGT_0093",
            null,
            "INFECTIONS AND INFESTATIONS",
            null,
            "INFECTIONS AND INFESTATIONS",
            null,
            "MILD",
            "N",
            "",
            "NONE",
            "NOT RECOVERED/NOT RESOLVED",
            "N",
            "N",
            "N",
            "N",
            "N",
            "N",
            "N",
            "2014-03-15",
            "2014-03-09",
            "2014-03-16",
            23,
            30,
            "Y"
          ],
          [
            51,
            "CDISCPILOT01",
            "AE",
            "01-701-1130",
            3,
            "E06",
            "URINARY TRACT INFECTION",
            "URINARY TRACT INFECTION",
            null,
            "URINARY TRACT INFECTION",
            null,
            "HLT_0161",
            null,
            "HLGT_0093",
            null,
            "INFECTIONS AND INFESTATIONS",
            null,
            "INFECTIONS AND INFESTATIONS",
            null,
            "MILD",
            "N",
            "",
            "NONE",
            "RECOVERED/RESOLVED",
            "N",
            "N",
            "N",
            "N",
            "N",
            "N",
            "N",
            "2014-03-17",
            "2014-03-09",
            "2014-03-16",
            23,
            30,
            "Y"
          ],
          [
            52,
            "CDISCPILOT01",
            "AE",
            "01-701-1133",
            1,
            "E04",
            "アプリケーションサイトの紅斑",
            "APPLICATION SITE REDNESS",
            null,
            "APPLICATION SITE ERYTHEMA",
            null,
            "HLT_0617",
            null,
            "HLGT_0152",
            null,
            "GENERAL DISORDERS AND ADMINISTRATION SITE CONDITIONS",
            null,
            "GENERAL DISORDERS AND ADMINISTRATION SITE CONDITIONS",
            null,
            "MILD",
            "N",
            "",
            "PROBABLE",
            "NOT RECOVERED/NOT RESOLVED",
            "N",
            "N",
            "N",
            "N",
            "N",
            "N",
            "N",
            "2013-01-22",
            "2012-12-27",
            "",
            61,
            null,
            "Y"
          ],
          [
            53,
            "CDISCPILOT01",
            "AE",
            "01-701-1133",
            3,
            "E04",
            "アプリケーションサイトの紅斑",
            "APPLICATION SITE REDNESS",
            null,
            "APPLICATION SITE ERYTHEMA",
            null,
            "HLT_0617",
            null,
            "HLGT_0152",
            null,
            "GENERAL DISORDERS AND ADMINISTRATION SITE CONDITIONS",
            null,
            "GENERAL DISORDERS AND ADMINISTRATION SITE CONDITIONS",
            null,
            "MODERATE",
            "N",
            "",
            "PROBABLE",
            "NOT RECOVERED/NOT RESOLVED",
            "N",
            "N",
            "N",
            "N",
            "N",
            "N",
            "N",
            "2013-02-18",
            "2012-12-27",
            "",
            61,
            null,
            "Y"
          ],
          [
            54,
            "CDISCPILOT01",
            "AE",
            "01-701-1133",
            2,
            "E05",
            "アプリケーションサイトのかゆみ",
            "APPLICATION SITE ITCHING",
            null,
            "APPLICATION SITE PRURITUS",
            null,
            "HLT_0317",
            null,
            "HLGT_0338",
            null,
            "GENERAL DISORDERS AND ADMINISTRATION SITE CONDITIONS",
            null,
            "GENERAL DISORDERS AND ADMINISTRATION SITE CONDITIONS",
            null,
            "MILD",
            "N",
            "",
            "PROBABLE",
            "NOT RECOVERED/NOT RESOLVED",
            "N",
            "N",
            "N",
            "N",
            "N",
            "N",
            "N",
            "2013-01-22",
            "2012-12-27",
            "",
            61,
            null,
            "Y"
          ],
          [
            55,
            "CDISCPILOT01",
            "AE",
            "01-701-1133",
            4,
            "E05",
            "アプリケーションサイトのかゆみ",
            "APPLICATION SITE ITCHING",
            null,
            "APPLICATION SITE PRURITUS",
            null,
            "HLT_0317",
            null,
            "HLGT_0338",
            null,
            "GENERAL DISORDERS AND ADMINISTRATION SITE CONDITIONS",
            null,
            "GENERAL DISORDERS AND ADMINISTRATION SITE CONDITIONS",
            null,
            "MODERATE",
            "N",
            "",
            "PROBABLE",
            "NOT RECOVERED/NOT RESOLVED",
            "N",
            "N",
            "N",
            "N",
            "N",
            "N",
            "N",
            "2013-02-18",
            "2012-12-27",
            "",
            61,
            null,
            "Y"
          ],
          [
            56,
            "CDISCPILOT01",
            "AE",
            "01-701-1146",
            5,
            "E12",
            "アプリケーションサイトの紅斑",
            "APPLICATION SITE ERYTHEMA",
            null,
            "APPLICATION SITE ERYTHEMA",
            null,
            "HLT_0617",
            null,
            "HLGT_0152",
            null,
            "GENERAL DISORDERS AND ADMINISTRATION SITE CONDITIONS",
            null,
            "GENERAL DISORDERS AND ADMINISTRATION SITE CONDITIONS",
            null,
            "MILD",
            "N",
            "",
            "PROBABLE",
            "NOT RECOVERED/NOT RESOLVED",
            "N",
            "N",
            "N",
            "N",
            "N",
            "N",
            "N",
            "2013-06-16",
            "2013-06-10",
            "",
            22,
            null,
            "Y"
          ],
          [
            57,
            "CDISCPILOT01",
            "AE",
            "01-701-1146",
            7,
            "E12",
            "アプリケーションサイトの紅斑",
            "APPLICATION SITE ERYTHEMA",
            null,
            "APPLICATION SITE ERYTHEMA",
            null,
            "HLT_0617",
            null,
            "HLGT_0152",
            null,
            "GENERAL DISORDERS AND ADMINISTRATION SITE CONDITIONS",
            null,
            "GENERAL DISORDERS AND ADMINISTRATION SITE CONDITIONS",
            null,
            "MODERATE",
            "N",
            "",
            "PROBABLE",
            "NOT RECOVERED/NOT RESOLVED",
            "N",
            "N",
            "N",
            "N",
            "N",
            "N",
            "N",
            "2013-06-30",
            "2013-06-10",
            "",
            22,
            null,
            "Y"
          ],
          [
            58,
            "CDISCPILOT01",
            "AE",
            "01-701-1146",
            3,
            "E10",
            "アプリケーションサイトの刺激",
            "APPLICATION SITE IRRITATION",
            null,
            "APPLICATION SITE IRRITATION",
            null,
            "HLT_0061",
            null,
            "HLGT_0346",
            null,
            "GENERAL DISORDERS AND ADMINISTRATION SITE CONDITIONS",
            null,
            "GENERAL DISORDERS AND ADMINISTRATION SITE CONDITIONS",
            null,
            "MILD",
            "N",
            "",
            "PROBABLE",
            "RECOVERED/RESOLVED",
            "N",
            "N",
            "N",
            "N",
            "N",
            "N",
            "N",
            "2013-06-03",
            "2013-06-01",
            "2013-06-02",
            13,
            14,
            "Y"
          ],
          [
            59,
            "CDISCPILOT01",
            "AE",
            "01-701-1146",
            11,
            "E16",
            "アプリケーションサイトの刺激",
            "APPLICATION SITE BURNING",
            null,
            "APPLICATION SITE IRRITATION",
            null,
            "HLT_0061",
            null,
            "HLGT_0346",
            null,
            "GENERAL DISORDERS AND ADMINISTRATION SITE CONDITIONS",
            null,
            "GENERAL DISORDERS AND ADMINISTRATION SITE CONDITIONS",
            null,
            "MODERATE",
            "N",
            "",
            "PROBABLE",
            "NOT RECOVERED/NOT RESOLVED",
            "N",
            "N",
            "N",
            "N",
            "N",
            "N",
            "N",
            "2013-06-30",
            "2013-06-26",
            "",
            38,
            null,
            "Y"
          ],
          [
            60,
            "CDISCPILOT01",
            "AE",
            "01-701-1146",
            9,
            "E14",
            "APPLICATION SITE PAIN",
            "APPLICATION SITE PAIN",
            null,
            "APPLICATION SITE PAIN",
            null,
            "HLT_0342",
            null,
            "HLGT_0085",
            null,
            "GENERAL DISORDERS AND ADMINISTRATION SITE CONDITIONS",
            null,
            "GENERAL DISORDERS AND ADMINISTRATION SITE CONDITIONS",
            null,
            "MODERATE",
            "N",
            "",
            "PROBABLE",
            "NOT RECOVERED/NOT RESOLVED",
            "N",
            "N",
            "N",
            "N",
            "N",
            "N",
            "N",
            "2013-06-30",
            "2013-06-22",
            "",
            34,
            null,
            "Y"
          ],
          [
            61,
            "CDISCPILOT01",
            "AE",
            "01-701-1146",
            6,
            "E13",
            "アプリケーションサイトのかゆみ",
            "APPLICATION SITE ITCHING",
            null,
            "APPLICATION SITE PRURITUS",
            null,
            "HLT_0317",
            null,
            "HLGT_0338",
            null,
            "GENERAL DISORDERS AND ADMINISTRATION SITE CONDITIONS",
            null,
            "GENERAL DISORDERS AND ADMINISTRATION SITE CONDITIONS",
            null,
            "MILD",
            "N",
            "",
            "PROBABLE",
            "NOT RECOVERED/NOT RESOLVED",
            "N",
            "N",
            "N",
            "N",
            "N",
            "N",
            "N",
            "2013-06-16",
            "2013-06-10",
            "",
            22,
            null,
            "Y"
          ],
          [
            62,
            "CDISCPILOT01",
            "AE",
            "01-701-1146",
            8,
            "E13",
            "アプリケーションサイトのかゆみ",
            "APPLICATION SITE ITCHING",
            null,
            "APPLICATION SITE PRURITUS",
            null,
            "HLT_0317",
            null,
            "HLGT_0338",
            null,
            "GENERAL DISORDERS AND ADMINISTRATION SITE CONDITIONS",
            null,
            "GENERAL DISORDERS AND ADMINISTRATION SITE CONDITIONS",
            null,
            "MODERATE",
            "N",
            "",
            "PROBABLE",
            "NOT RECOVERED/NOT RESOLVED",
            "N",
            "N",
            "N",
            "N",
            "N",
            "N",
            "N",
            "2013-06-30",
            "2013-06-10",
            "",
            22,
            null,
            "Y"
          ],
          [
            63,
            "CDISCPILOT01",
            "AE",
            "01-701-1146",
            10,
            "E15",
            "APPLICATION SITE VESICLES",
            "APPLICATION SITE VESICLES",
            null,
            "APPLICATION SITE VESICLES",
            null,
            "HLT_0180",
            null,
            "HLGT_0576",
            null,
            "GENERAL DISORDERS AND ADMINISTRATION SITE CONDITIONS",
            null,
            "GENERAL DISORDERS AND ADMINISTRATION SITE CONDITIONS",
            null,
            "MODERATE",
            "N",
            "",
            "PROBABLE",
            "NOT RECOVERED/NOT RESOLVED",
            "N",
            "N",
            "N",
            "N",
            "N",
            "N",
            "N",
            "2013-06-30",
            "2013-06-26",
            "",
            38,
            null,
            "Y"
          ],
          [
            64,
            "CDISCPILOT01",
            "AE",
            "01-701-1146",
            4,
            "E11",
            "倦怠感",
            "FATIGUE",
            null,
            "FATIGUE",
            null,
            "HLT_0043",
            null,
            "HLGT_0181",
            null,
            "GENERAL DISORDERS AND ADMINISTRATION SITE CONDITIONS",
            null,
            "GENERAL DISORDERS AND ADMINISTRATION SITE CONDITIONS",
            null,
            "MILD",
            "N",
            "",
            "POSSIBLE",
            "NOT RECOVERED/NOT RESOLVED",
            "N",
            "N",
            "N",
            "N",
            "N",
            "N",
            "N",
            "2013-06-03",
            "2013-06-03",
            "",
            15,
            null,
            "Y"
          ],
          [
            65,
            "CDISCPILOT01",
            "AE",
            "01-701-1146",
            1,
            "E09",
            "発疹",
            "RASH",
            null,
            "RASH",
            null,
            "HLT_0762",
            null,
            "HLGT_0198",
            null,
            "SKIN AND SUBCUTANEOUS TISSUE DISORDERS",
            null,
            "SKIN AND SUBCUTANEOUS TISSUE DISORDERS",
            null,
            "MILD",
            "N",
            "",
            "NONE",
            "NOT RECOVERED/NOT RESOLVED",
            "N",
            "N",
            "N",
            "N",
            "N",
            "N",
            "N",
            "2013-05-18",
            "2013-05-16",
            "2013-06-02",
            -4,
            14,
            "N"
          ],
          [
            66,
            "CDISCPILOT01",
            "AE",
            "01-701-1146",
            2,
            "E09",
            "発疹",
            "RASH",
            null,
            "RASH",
            null,
            "HLT_0762",
            null,
            "HLGT_0198",
            null,
            "SKIN AND SUBCUTANEOUS TISSUE DISORDERS",
            null,
            "SKIN AND SUBCUTANEOUS TISSUE DISORDERS",
            null,
            "MILD",
            "N",
            "",
            "NONE",
            "RECOVERED/RESOLVED",
            "N",
            "N",
            "N",
            "N",
            "N",
            "N",
            "N",
            "2013-06-03",
            "2013-05-16",
            "2013-06-02",
            -4,
            14,
            "N"
          ],
          [
            67,
            "CDISCPILOT01",
            "AE",
            "01-701-1148",
            10,
            "E27",
            "ACTINIC KERATOSIS",
            "ACTINIC KERATOSIS",
            null,
            "ACTINIC KERATOSIS",
            null,
            "HLT_0609",
            null,
            "HLGT_0490",
            null,
            "SKIN AND SUBCUTANEOUS TISSUE DISORDERS",
            null,
            "SKIN AND SUBCUTANEOUS TISSUE DISORDERS",
            null,
            "MILD",
            "N",
            "",
            "NONE",
            "NOT RECOVERED/NOT RESOLVED",
            "N",
            "N",
            "N",
            "N",
            "N",
            "N",
            "N",
            "2014-02-20",
            "2014-02-12",
            "",
            174,
            null,
            "Y"
          ],
          [
            68,
            "CDISCPILOT01",
            "AE",
            "01-701-1148",
            1,
            "E20",
            "アプリケーションサイトの紅斑",
            "APPLICATION SITE REDNESS",
            null,
            "APPLICATION SITE ERYTHEMA",
            null,
            "HLT_0617",
            null,
            "HLGT_0152",
            null,
            "GENERAL DISORDERS AND ADMINISTRATION SITE CONDITIONS",
            null,
            "GENERAL DISORDERS AND ADMINISTRATION SITE CONDITIONS",
            null,
            "MILD",
            "N",
            "",
            "PROBABLE",
            "NOT RECOVERED/NOT RESOLVED",
            "N",
            "N",
            "N",
            "N",
            "N",
            "N",
            "N",
            "2013-09-05",
            "2013-08-25",
            "",
            3,
            null,
            "Y"
          ],
          [
            69,
            "CDISCPILOT01",
            "AE",
            "01-701-1148",
            2,
            "E21",
            "アプリケーションサイトのかゆみ",
            "APPLICATION SITE ITCHING",
            null,
            "APPLICATION SITE PRURITUS",
            null,
            "HLT_0317",
            null,
            "HLGT_0338",
            null,
            "GENERAL DISORDERS AND ADMINISTRATION SITE CONDITIONS",
            null,
            "GENERAL DISORDERS AND ADMINISTRATION SITE CONDITIONS",
            null,
            "MILD",
            "N",
            "",
            "PROBABLE",
            "NOT RECOVERED/NOT RESOLVED",
            "N",
            "N",
            "N",
            "N",
            "N",
            "N",
            "N",
            "2013-09-05",
            "2013-08-25",
            "",
            3,
            null,
            "Y"
          ],
          [
            70,
            "CDISCPILOT01",
            "AE",
            "01-701-1148",
            6,
            "E25",
            "CALCULUS URETHRAL",
            "URETHRAL CALCULUS",
            null,
            "CALCULUS URETHRAL",
            null,
            "HLT_0550",
            null,
            "HLGT_0414",
            null,
            "RENAL AND URINARY DISORDERS",
            null,
            "RENAL AND URINARY DISORDERS",
            null,
            "MODERATE",
            "N",
            "",
            "NONE",
            "RECOVERED/RESOLVED",
            "N",
            "N",
            "N",
            "N",
            "N",
            "N",
            "N",
            "2014-01-10",
            "2013-12-17",
            "2013-12-17",
            117,
            117,
            "Y"
          ],
          [
            71,
            "CDISCPILOT01",
            "AE",
            "01-701-1148",
            9,
            "E26",
            "DEPRESSED MOOD",
            "DEPRESSED MOOD",
            null,
            "DEPRESSED MOOD",
            null,
            "HLT_0784",
            null,
            "HLGT_0122",
            null,
            "PSYCHIATRIC DISORDERS",
            null,
            "PSYCHIATRIC DISORDERS",
            null,
            "MODERATE",
            "N",
            "",
            "NONE",
            "NOT RECOVERED/NOT RESOLVED",
            "N",
            "N",
            "N",
            "N",
            "N",
            "N",
            "N",
            "2014-02-08",
            "2013-07-29",
            "",
            -25,
            null,
            "N"
          ],
          [
            72,
            "CDISCPILOT01",
            "AE",
            "01-701-1148",
            8,
            "E03",
            "DYSPEPSIA",
            "INDIGESTION",
            null,
            "DYSPEPSIA",
            null,
            "HLT_0244",
            null,
            "HLGT_0716",
            null,
            "GASTROINTESTINAL DISORDERS",
            null,
            "GASTROINTESTINAL DISORDERS",
            null,
            "MODERATE",
            "N",
            "",
            "NONE",
            "NOT RECOVERED/NOT RESOLVED",
            "N",
            "N",
            "N",
            "N",
            "N",
            "N",
            "N",
            "2014-02-08",
            "2012-02",
            "",
            null,
            null,
            "N"
          ],
          [
            73,
            "CDISCPILOT01",
            "AE",
            "01-701-1148",
            7,
            "E28",
            "EPISTAXIS",
            "NOSE BLEED",
            null,
            "EPISTAXIS",
            null,
            "HLT_0386",
            null,
            "HLGT_0577",
            null,
            "RESPIRATORY THORACIC AND MEDIASTINAL DISORDERS",
            null,
            "RESPIRATORY THORACIC AND MEDIASTINAL DISORDERS",
            null,
            "MILD",
            "N",
            "",
            "NONE",
            "RECOVERED/RESOLVED",
            "N",
            "N",
            "N",
            "N",
            "N",
            "N",
            "N",
            "2014-01-10",
            "2014-01-03",
            "2014-01-03",
            134,
            134,
            "Y"
          ],
          [
            74,
            "CDISCPILOT01",
            "AE",
            "01-701-1148",
            5,
            "E24",
            "FLANK PAIN",
            "FLANK PAIN",
            null,
            "FLANK PAIN",
            null,
            "HLT_0484",
            null,
            "HLGT_0543",
            null,
            "MUSCULOSKELETAL AND CONNECTIVE TISSUE DISORDERS",
            null,
            "MUSCULOSKELETAL AND CONNECTIVE TISSUE DISORDERS",
            null,
            "MODERATE",
            "N",
            "",
            "NONE",
            "RECOVERED/RESOLVED",
            "N",
            "N",
            "N",
            "N",
            "N",
            "N",
            "N",
            "2014-01-10",
            "2013-12-15",
            "2013-12-17",
            115,
            117,
            "Y"
          ],
          [
            75,
            "CDISCPILOT01",
            "AE",
            "01-701-1148",
            3,
            "E23",
            "LOWER RESPIRATORY TRACT INFECTION",
            "CHEST COLD",
            null,
            "LOWER RESPIRATORY TRACT INFECTION",
            null,
            "HLT_0052",
            null,
            "HLGT_0217",
            null,
            "INFECTIONS AND INFESTATIONS",
            null,
            "INFECTIONS AND INFESTATIONS",
            null,
            "MODERATE",
            "N",
            "",
            "NONE",
            "NOT RECOVERED/NOT RESOLVED",
            "N",
            "N",
            "N",
            "N",
            "N",
            "N",
            "N",
            "2013-10-18",
            "2013-10-12",
            "2013-11-10",
            51,
            80,
            "Y"
          ],
          [
            76,
            "CDISCPILOT01",
            "AE",
            "01-701-1148",
            4,
            "E23",
            "LOWER RESPIRATORY TRACT INFECTION",
            "CHEST COLD",
            null,
            "LOWER RESPIRATORY TRACT INFECTION",
            null,
            "HLT_0052",
            null,
            "HLGT_0217",
            null,
            "INFECTIONS AND INFESTATIONS",
            null,
            "INFECTIONS AND INFESTATIONS",
            null,
            "MODERATE",
            "N",
            "",
            "NONE",
            "RECOVERED/RESOLVED",
            "N",
            "N",
            "N",
            "N",
            "N",
            "N",
            "N",
            "2013-11-17",
            "2013-10-12",
            "2013-11-10",
            51,
            80,
            "Y"
          ],
          [
            77,
            "CDISCPILOT01",
            "AE",
            "01-701-1153",
            1,
            "E06",
            "INCREASED APPETITE",
            "INCREASED APPETITE",
            null,
            "INCREASED APPETITE",
            null,
            "HLT_0566",
            null,
            "HLGT_0769",
            null,
            "METABOLISM AND NUTRITION DISORDERS",
            null,
            "METABOLISM AND NUTRITION DISORDERS",
            null,
            "MILD",
            "N",
            "",
            "POSSIBLE",
            "NOT RECOVERED/NOT RESOLVED",
            "N",
            "N",
            "N",
            "N",
            "N",
            "N",
            "N",
            "2013-10-19",
            "2013-10-13",
            "2013-11-06",
            21,
            45,
            "Y"
          ],
          [
            78,
            "CDISCPILOT01",
            "AE",
            "01-701-1153",
            2,
            "E06",
            "INCREASED APPETITE",
            "INCREASED APPETITE",
            null,
            "INCREASED APPETITE",
            null,
            "HLT_0566",
            null,
            "HLGT_0769",
            null,
            "METABOLISM AND NUTRITION DISORDERS",
            null,
            "METABOLISM AND NUTRITION DISORDERS",
            null,
            "MILD",
            "N",
            "",
            "POSSIBLE",
            "RECOVERED/RESOLVED",
            "N",
            "N",
            "N",
            "N",
            "N",
            "N",
            "N",
            "2013-11-18",
            "2013-10-13",
            "2013-11-06",
            21,
            45,
            "Y"
          ],
          [
            79,
            "CDISCPILOT01",
            "AE",
            "01-701-1180",
            9,
            "E07",
            "アプリケーションサイトの紅斑",
            "APPLICATION SITE ERYTHEMA",
            null,
            "APPLICATION SITE ERYTHEMA",
            null,
            "HLT_0617",
            null,
            "HLGT_0152",
            null,
            "GENERAL DISORDERS AND ADMINISTRATION SITE CONDITIONS",
            null,
            "GENERAL DISORDERS AND ADMINISTRATION SITE CONDITIONS",
            null,
            "MODERATE",
            "N",
            "",
            "POSSIBLE",
            "NOT RECOVERED/NOT RESOLVED",
            "N",
            "N",
            "N",
            "N",
            "N",
            "N",
            "N",
            "2013-03-23",
            "2013-03-19",
            "",
            36,
            null,
            "Y"
          ],
          [
            80,
            "CDISCPILOT01",
            "AE",
            "01-701-1180",
            8,
            "E06",
            "アプリケーションサイトのかゆみ",
            "APPLICATION SITE ITCHING",
            null,
            "APPLICATION SITE PRURITUS",
            null,
            "HLT_0317",
            null,
            "HLGT_0338",
            null,
            "GENERAL DISORDERS AND ADMINISTRATION SITE CONDITIONS",
            null,
            "GENERAL DISORDERS AND ADMINISTRATION SITE CONDITIONS",
            null,
            "MODERATE",
            "N",
            "",
            "POSSIBLE",
            "NOT RECOVERED/NOT RESOLVED",
            "N",
            "N",
            "N",
            "N",
            "N",
            "N",
            "N",
            "2013-03-23",
            "2013-03-19",
            "",
            36,
            null,
            "Y"
          ],
          [
            81,
            "CDISCPILOT01",
            "AE",
            "01-701-1180",
            7,
            "E05",
            "APPLICATION SITE VESICLES",
            "APPLICATION SITE BLISTER",
            null,
            "APPLICATION SITE VESICLES",
            null,
            "HLT_0180",
            null,
            "HLGT_0576",
            null,
            "GENERAL DISORDERS AND ADMINISTRATION SITE CONDITIONS",
            null,
            "GENERAL DISORDERS AND ADMINISTRATION SITE CONDITIONS",
            null,
            "MODERATE",
            "N",
            "",
            "POSSIBLE",
            "NOT RECOVERED/NOT RESOLVED",
            "N",
            "N",
            "N",
            "N",
            "N",
            "N",
            "N",
            "2013-03-23",
            "2013-03-19",
            "",
            36,
            null,
            "Y"
          ],
          [
            82,
            "CDISCPILOT01",
            "AE",
            "01-701-1180",
            4,
            "E04",
            "頭痛",
            "HEADACHE",
            null,
            "HEADACHE",
            null,
            "HLT_0064",
            null,
            "HLGT_0344",
            null,
            "NERVOUS SYSTEM DISORDERS",
            null,
            "NERVOUS SYSTEM DISORDERS",
            null,
            "MODERATE",
            "N",
            "",
            "NONE",
            "NOT RECOVERED/NOT RESOLVED",
            "N",
            "N",
            "N",
            "N",
            "N",
            "N",
            "N",
            "2013-03-11",
            "2002",
            "",
            null,
            null,
            "N"
          ],
          [
            83,
            "CDISCPILOT01",
            "AE",
            "01-701-1180",
            3,
            "E02",
            "MICTURITION URGENCY",
            "URINARY URGENCY",
            null,
            "MICTURITION URGENCY",
            null,
            "HLT_0294",
            null,
            "HLGT_0483",
            null,
            "RENAL AND URINARY DISORDERS",
            null,
            "RENAL AND URINARY DISORDERS",
            null,
            "MILD",
            "N",
            "",
            "POSSIBLE",
            "NOT RECOVERED/NOT RESOLVED",
            "N",
            "N",
            "N",
            "N",
            "N",
            "N",
            "N",
            "2013-02-25",
            "2013-02-15",
            "2013-03-19",
            4,
            36,
            "Y"
          ],
          [
            84,
            "CDISCPILOT01",
            "AE",
            "01-701-1180",
            6,
            "E02",
            "MICTURITION URGENCY",
            "URINARY URGENCY",
            null,
            "MICTURITION URGENCY",
            null,
            "HLT_0294",
            null,
            "HLGT_0483",
            null,
            "RENAL AND URINARY DISORDERS",
            null,
            "RENAL AND URINARY DISORDERS",
            null,
            "MILD",
            "N",
            "",
            "POSSIBLE",
            "RECOVERED/RESOLVED",
            "N",
            "N",
            "N",
            "N",
            "N",
            "N",
            "N",
            "2013-03-23",
            "2013-02-15",
            "2013-03-19",
            4,
            36,
            "Y"
          ],
          [
            85,
            "CDISCPILOT01",
            "AE",
            "01-701-1180",
            5,
            "E03",
            "NASOPHARYNGITIS",
            "COLD",
            null,
            "NASOPHARYNGITIS",
            null,
            "HLT_0036",
            null,
            "HLGT_0709",
            null,
            "INFECTIONS AND INFESTATIONS",
            null,
            "INFECTIONS AND INFESTATIONS",
            null,
            "MILD",
            "N",
            "",
            "NONE",
            "RECOVERED/RESOLVED",
            "N",
            "N",
            "N",
            "N",
            "N",
            "N",
            "N",
            "2013-03-11",
            "2013-03-06",
            "2013-03-07",
            23,
            24,
            "Y"
          ],
          [
            86,
            "CDISCPILOT01",
            "AE",
            "01-701-1180",
            1,
            "E01",
            "嘔吐",
            "VOMITING",
            null,
            "VOMITING",
            null,
            "HLT_0016",
            null,
            "HLGT_0350",
            null,
            "GASTROINTESTINAL DISORDERS",
            null,
            "GASTROINTESTINAL DISORDERS",
            null,
            "MILD",
            "N",
            "",
            "NONE",
            "NOT RECOVERED/NOT RESOLVED",
            "N",
            "N",
            "N",
            "N",
            "N",
            "N",
            "N",
            "2013-02-12",
            "2013-02-12",
            "2013-02-12",
            1,
            1,
            "Y"
          ],
          [
            87,
            "CDISCPILOT01",
            "AE",
            "01-701-1180",
            2,
            "E01",
            "嘔吐",
            "VOMITING",
            null,
            "VOMITING",
            null,
            "HLT_0016",
            null,
            "HLGT_0350",
            null,
            "GASTROINTESTINAL DISORDERS",
            null,
            "GASTROINTESTINAL DISORDERS",
            null,
            "MILD",
            "N",
            "",
            "NONE",
            "RECOVERED/RESOLVED",
            "N",
            "N",
            "N",
            "N",
            "N",
            "N",
            "N",
            "2013-02-25",
            "2013-02-12",
            "2013-02-12",
            1,
            1,
            "Y"
          ],
          [
            88,
            "CDISCPILOT01",
            "AE",
            "01-701-1181",
            1,
            "E16",
            "攪拌",
            "AGITATION",
            null,
            "AGITATION",
            null,
            "HLT_0140",
            null,
            "HLGT_0170",
            null,
            "PSYCHIATRIC DISORDERS",
            null,
            "PSYCHIATRIC DISORDERS",
            null,
            "MODERATE",
            "N",
            "",
            "NONE",
            "RECOVERED/RESOLVED",
            "N",
            "N",
            "N",
            "N",
            "N",
            "N",
            "N",
            "2013-12-12",
            "2013-12-09",
            "2013-12-09",
            5,
            5,
            "Y"
          ],
          [
            89,
            "CDISCPILOT01",
            "AE",
            "01-701-1188",
            7,
            "E09",
            "APPLICATION SITE URTICARIA",
            "APPLICATION SITE URTICARIA",
            null,
            "APPLICATION SITE URTICARIA",
            null,
            "HLT_0196",
            null,
            "HLGT_0233",
            null,
            "GENERAL DISORDERS AND ADMINISTRATION SITE CONDITIONS",
            null,
            "GENERAL DISORDERS AND ADMINISTRATION SITE CONDITIONS",
            null,
            "MILD",
            "N",
            "",
            "PROBABLE",
            "NOT RECOVERED/NOT RESOLVED",
            "N",
            "N",
            "N",
            "N",
            "N",
            "N",
            "N",
            "2013-03-25",
            "2013-03-21",
            "",
            35,
            null,
            "Y"
          ],
          [
            90,
            "CDISCPILOT01",
            "AE",
            "01-701-1188",
            1,
            "E04",
            "紅斑 ",
            "ERYTHEMA",
            null,
            "ERYTHEMA",
            null,
            "HLT_0284",
            null,
            "HLGT_0192",
            null,
            "SKIN AND SUBCUTANEOUS TISSUE DISORDERS",
            null,
            "SKIN AND SUBCUTANEOUS TISSUE DISORDERS",
            null,
            "MILD",
            "N",
            "",
            "PROBABLE",
            "NOT RECOVERED/NOT RESOLVED",
            "N",
            "N",
            "N",
            "N",
            "N",
            "N",
            "N",
            "2013-03-02",
            "2013-02-16",
            "",
            2,
            null,
            "Y"
          ],
          [
            91,
            "CDISCPILOT01",
            "AE",
            "01-701-1188",
            3,
            "E04",
            "紅斑 ",
            "ERYTHEMA",
            null,
            "ERYTHEMA",
            null,
            "HLT_0284",
            null,
            "HLGT_0192",
            null,
            "SKIN AND SUBCUTANEOUS TISSUE DISORDERS",
            null,
            "SKIN AND SUBCUTANEOUS TISSUE DISORDERS",
            null,
            "MODERATE",
            "N",
            "",
            "PROBABLE",
            "NOT RECOVERED/NOT RESOLVED",
            "N",
            "N",
            "N",
            "N",
            "N",
            "N",
            "N",
            "2013-03-16",
            "2013-02-16",
            "",
            2,
            null,
            "Y"
          ],
          [
            92,
            "CDISCPILOT01",
            "AE",
            "01-701-1188",
            2,
            "E05",
            "かゆみ",
            "ITCHING",
            null,
            "PRURITUS",
            null,
            "HLT_0778",
            null,
            "HLGT_0695",
            null,
            "SKIN AND SUBCUTANEOUS TISSUE DISORDERS",
            null,
            "SKIN AND SUBCUTANEOUS TISSUE DISORDERS",
            null,
            "MILD",
            "N",
            "",
            "PROBABLE",
            "NOT RECOVERED/NOT RESOLVED",
            "N",
            "N",
            "N",
            "N",
            "N",
            "N",
            "N",
            "2013-03-02",
            "2013-02-16",
            "",
            2,
            null,
            "Y"
          ],
          [
            93,
            "CDISCPILOT01",
            "AE",
            "01-701-1188",
            4,
            "E05",
            "かゆみ",
            "ITCHING",
            null,
            "PRURITUS",
            null,
            "HLT_0778",
            null,
            "HLGT_0695",
            null,
            "SKIN AND SUBCUTANEOUS TISSUE DISORDERS",
            null,
            "SKIN AND SUBCUTANEOUS TISSUE DISORDERS",
            null,
            "MODERATE",
            "N",
            "",
            "PROBABLE",
            "NOT RECOVERED/NOT RESOLVED",
            "N",
            "N",
            "N",
            "N",
            "N",
            "N",
            "N",
            "2013-03-16",
            "2013-02-16",
            "",
            2,
            null,
            "Y"
          ],
          [
            94,
            "CDISCPILOT01",
            "AE",
            "01-701-1188",
            5,
            "E06",
            "URTICARIA",
            "WELTS",
            null,
            "URTICARIA",
            null,
            "HLT_0420",
            null,
            "HLGT_0705",
            null,
            "SKIN AND SUBCUTANEOUS TISSUE DISORDERS",
            null,
            "SKIN AND SUBCUTANEOUS TISSUE DISORDERS",
            null,
            "MILD",
            "N",
            "",
            "PROBABLE",
            "NOT RECOVERED/NOT RESOLVED",
            "N",
            "N",
            "N",
            "N",
            "N",
            "N",
            "N",
            "2013-03-16",
            "2013-03-04",
            "",
            18,
            null,
            "Y"
          ],
          [
            95,
            "CDISCPILOT01",
            "AE",
            "01-701-1188",
            6,
            "E06",
            "URTICARIA",
            "WELTS",
            null,
            "URTICARIA",
            null,
            "HLT_0420",
            null,
            "HLGT_0705",
            null,
            "SKIN AND SUBCUTANEOUS TISSUE DISORDERS",
            null,
            "SKIN AND SUBCUTANEOUS TISSUE DISORDERS",
            null,
            "MODERATE",
            "N",
            "",
            "PROBABLE",
            "NOT RECOVERED/NOT RESOLVED",
            "N",
            "N",
            "N",
            "N",
            "N",
            "N",
            "N",
            "2013-03-25",
            "2013-03-04",
            "",
            18,
            null,
            "Y"
          ],
          [
            96,
            "CDISCPILOT01",
            "AE",
            "01-701-1188",
            8,
            "E10",
            "URTICARIA",
            "WELTS",
            null,
            "URTICARIA",
            null,
            "HLT_0420",
            null,
            "HLGT_0705",
            null,
            "SKIN AND SUBCUTANEOUS TISSUE DISORDERS",
            null,
            "SKIN AND SUBCUTANEOUS TISSUE DISORDERS",
            null,
            "MILD",
            "N",
            "",
            "PROBABLE",
            "NOT RECOVERED/NOT RESOLVED",
            "N",
            "N",
            "N",
            "N",
            "N",
            "N",
            "N",
            "2013-03-25",
            "2013-03-21",
            "",
            35,
            null,
            "Y"
          ],
          [
            97,
            "CDISCPILOT01",
            "AE",
            "01-701-1192",
            13,
            "E13",
            "アプリケーションサイトの紅斑",
            "APPLICATION SITE REDNESS",
            null,
            "APPLICATION SITE ERYTHEMA",
            null,
            "HLT_0617",
            null,
            "HLGT_0152",
            null,
            "GENERAL DISORDERS AND ADMINISTRATION SITE CONDITIONS",
            null,
            "GENERAL DISORDERS AND ADMINISTRATION SITE CONDITIONS",
            null,
            "MILD",
            "N",
            "",
            "PROBABLE",
            "NOT RECOVERED/NOT RESOLVED",
            "N",
            "N",
            "N",
            "N",
            "N",
            "N",
            "N",
            "2012-12-13",
            "2012-12-05",
            "",
            137,
            null,
            "Y"
          ],
          [
            98,
            "CDISCPILOT01",
            "AE",
            "01-701-1192",
            12,
            "E12",
            "アプリケーションサイトの刺激",
            "APPLICATION SITE BURNING",
            null,
            "APPLICATION SITE IRRITATION",
            null,
            "HLT_0061",
            null,
            "HLGT_0346",
            null,
            "GENERAL DISORDERS AND ADMINISTRATION SITE CONDITIONS",
            null,
            "GENERAL DISORDERS AND ADMINISTRATION SITE CONDITIONS",
            null,
            "MILD",
            "N",
            "",
            "PROBABLE",
            "NOT RECOVERED/NOT RESOLVED",
            "N",
            "N",
            "N",
            "N",
            "N",
            "N",
            "N",
            "2012-12-13",
            "2012-12-05",
            "2012-12-16",
            137,
            148,
            "Y"
          ],
          [
            99,
            "CDISCPILOT01",
            "AE",
            "01-701-1192",
            15,
            "E12",
            "アプリケーションサイトの刺激",
            "APPLICATION SITE BURNING",
            null,
            "APPLICATION SITE IRRITATION",
            null,
            "HLT_0061",
            null,
            "HLGT_0346",
            null,
            "GENERAL DISORDERS AND ADMINISTRATION SITE CONDITIONS",
            null,
            "GENERAL DISORDERS AND ADMINISTRATION SITE CONDITIONS",
            null,
            "MILD",
            "N",
            "",
            "PROBABLE",
            "RECOVERED/RESOLVED",
            "N",
            "N",
            "N",
            "N",
            "N",
            "N",
            "N",
            "2013-01-11",
            "2012-12-05",
            "2012-12-16",
            137,
            148,
            "Y"
          ],
          [
            100,
            "CDISCPILOT01",
            "AE",
            "01-701-1192",
            14,
            "E14",
            "アプリケーションサイトのかゆみ",
            "APPLICATION SITE ITCHING",
            null,
            "APPLICATION SITE PRURITUS",
            null,
            "HLT_0317",
            null,
            "HLGT_0338",
            null,
            "GENERAL DISORDERS AND ADMINISTRATION SITE CONDITIONS",
            null,
            "GENERAL DISORDERS AND ADMINISTRATION SITE CONDITIONS",
            null,
            "MILD",
            "N",
            "",
            "PROBABLE",
            "NOT RECOVERED/NOT RESOLVED",
            "N",
            "N",
            "N",
            "N",
            "N",
            "N",
            "N",
            "2012-12-13",
            "2012-12-05",
            "",
            137,
            null,
            "Y"
          ],
          [
            101,
            "CDISCPILOT01",
            "AE",
            "01-701-1192",
            4,
            "E01",
            "咳",
            "COUGH",
            null,
            "COUGH",
            null,
            "HLT_0701",
            null,
            "HLGT_0280",
            null,
            "RESPIRATORY THORACIC AND MEDIASTINAL DISORDERS",
            null,
            "RESPIRATORY THORACIC AND MEDIASTINAL DISORDERS",
            null,
            "MODERATE",
            "N",
            "",
            "NONE",
            "NOT RECOVERED/NOT RESOLVED",
            "N",
            "N",
            "N",
            "N",
            "N",
            "N",
            "N",
            "2012-09-23",
            "2010-06",
            "",
            null,
            null,
            "N"
          ],
          [
            102,
            "CDISCPILOT01",
            "AE",
            "01-701-1192",
            9,
            "E01",
            "咳",
            "COUGH",
            null,
            "COUGH",
            null,
            "HLT_0701",
            null,
            "HLGT_0280",
            null,
            "RESPIRATORY THORACIC AND MEDIASTINAL DISORDERS",
            null,
            "RESPIRATORY THORACIC AND MEDIASTINAL DISORDERS",
            null,
            "MILD",
            "N",
            "",
            "NONE",
            "NOT RECOVERED/NOT RESOLVED",
            "N",
            "N",
            "N",
            "N",
            "N",
            "N",
            "N",
            "2012-10-14",
            "2010-06",
            "",
            null,
            null,
            "N"
          ],
          [
            103,
            "CDISCPILOT01",
            "AE",
            "01-701-1192",
            3,
            "E09",
            "紅斑 ",
            "ERYTHEMA FACIAL",
            null,
            "ERYTHEMA",
            null,
            "HLT_0284",
            null,
            "HLGT_0192",
            null,
            "SKIN AND SUBCUTANEOUS TISSUE DISORDERS",
            null,
            "SKIN AND SUBCUTANEOUS TISSUE DISORDERS",
            null,
            "MILD",
            "N",
            "",
            "NONE",
            "NOT RECOVERED/NOT RESOLVED",
            "N",
            "N",
            "N",
            "N",
            "N",
            "N",
            "N",
            "2012-08-07",
            "2012-08-07",
            "2012-09-14",
            17,
            55,
            "Y"
          ],
          [
            104,
            "CDISCPILOT01",
            "AE",
            "01-701-1192",
            6,
            "E09",
            "紅斑 ",
            "ERYTHEMA FACIAL",
            null,
            "ERYTHEMA",
            null,
            "HLT_0284",
            null,
            "HLGT_0192",
            null,
            "SKIN AND SUBCUTANEOUS TISSUE DISORDERS",
            null,
            "SKIN AND SUBCUTANEOUS TISSUE DISORDERS",
            null,
            "MILD",
            "N",
            "",
            "NONE",
            "RECOVERED/RESOLVED",
            "N",
            "N",
            "N",
            "N",
            "N",
            "N",
            "N",
            "2012-09-23",
            "2012-08-07",
            "2012-09-14",
            17,
            55,
            "Y"
          ],
          [
            105,
            "CDISCPILOT01",
            "AE",
            "01-701-1192",
            8,
            "E11",
            "MUSCULAR WEAKNESS",
            "MUSCULAR WEAKNESS",
            null,
            "MUSCULAR WEAKNESS",
            null,
            "HLT_0444",
            null,
            "HLGT_0211",
            null,
            "MUSCULOSKELETAL AND CONNECTIVE TISSUE DISORDERS",
            null,
            "MUSCULOSKELETAL AND CONNECTIVE TISSUE DISORDERS",
            null,
            "MODERATE",
            "N",
            "",
            "NONE",
            "NOT RECOVERED/NOT RESOLVED",
            "N",
            "N",
            "N",
            "N",
            "N",
            "N",
            "N",
            "2012-09-23",
            "2012-09-07",
            "2012-09-30",
            48,
            71,
            "Y"
          ],
          [
            106,
            "CDISCPILOT01",
            "AE",
            "01-701-1192",
            11,
            "E11",
            "MUSCULAR WEAKNESS",
            "MUSCULAR WEAKNESS",
            null,
            "MUSCULAR WEAKNESS",
            null,
            "HLT_0444",
            null,
            "HLGT_0211",
            null,
            "MUSCULOSKELETAL AND CONNECTIVE TISSUE DISORDERS",
            null,
            "MUSCULOSKELETAL AND CONNECTIVE TISSUE DISORDERS",
            null,
            "MODERATE",
            "N",
            "",
            "NONE",
            "RECOVERED/RESOLVED",
            "N",
            "N",
            "N",
            "N",
            "N",
            "N",
            "N",
            "2012-10-14",
            "2012-09-07",
            "2012-09-30",
            48,
            71,
            "Y"
          ],
          [
            107,
            "CDISCPILOT01",
            "AE",
            "01-701-1192",
            1,
            "E06",
            "NASAL MUCOSA BIOPSY",
            "NASAL MUCOSA BIOPSY",
            null,
            "NASAL MUCOSA BIOPSY",
            null,
            "HLT_0680",
            null,
            "HLGT_0396",
            null,
            "INVESTIGATIONS",
            null,
            "INVESTIGATIONS",
            null,
            "MILD",
            "N",
            "",
            "NONE",
            "RECOVERED/RESOLVED",
            "N",
            "N",
            "N",
            "N",
            "N",
            "N",
            "N",
            "2012-08-07",
            "2012-08-03",
            "2012-08-03",
            13,
            13,
            "Y"
          ],
          [
            108,
            "CDISCPILOT01",
            "AE",
            "01-701-1192",
            7,
            "E10",
            "PNEUMONIA",
            "PNEUMONIA",
            null,
            "PNEUMONIA",
            null,
            "HLT_0251",
            null,
            "HLGT_0671",
            null,
            "INFECTIONS AND INFESTATIONS",
            null,
            "INFECTIONS AND INFESTATIONS",
            null,
            "MODERATE",
            "N",
            "",
            "NONE",
            "NOT RECOVERED/NOT RESOLVED",
            "N",
            "N",
            "N",
            "N",
            "Y",
            "N",
            "N",
            "2012-09-23",
            "2012-09-07",
            "2012-10-06",
            48,
            77,
            "Y"
          ],
          [
            109,
            "CDISCPILOT01",
            "AE",
            "01-701-1192",
            10,
            "E10",
            "PNEUMONIA",
            "PNEUMONIA",
            null,
            "PNEUMONIA",
            null,
            "HLT_0251",
            null,
            "HLGT_0671",
            null,
            "INFECTIONS AND INFESTATIONS",
            null,
            "INFECTIONS AND INFESTATIONS",
            null,
            "MODERATE",
            "N",
            "",
            "NONE",
            "RECOVERED/RESOLVED",
            "N",
            "N",
            "N",
            "N",
            "Y",
            "N",
            "N",
            "2012-10-14",
            "2012-09-07",
            "2012-10-06",
            48,
            77,
            "Y"
          ],
          [
            110,
            "CDISCPILOT01",
            "AE",
            "01-701-1192",
            2,
            "E08",
            "SECRETION DISCHARGE",
            "SECRETION DISCHARGE",
            null,
            "SECRETION DISCHARGE",
            null,
            "HLT_0683",
            null,
            "HLGT_0575",
            null,
            "GENERAL DISORDERS AND ADMINISTRATION SITE CONDITIONS",
            null,
            "GENERAL DISORDERS AND ADMINISTRATION SITE CONDITIONS",
            null,
            "MILD",
            "N",
            "",
            "NONE",
            "NOT RECOVERED/NOT RESOLVED",
            "N",
            "N",
            "N",
            "N",
            "N",
            "N",
            "N",
            "2012-08-07",
            "2012-08-07",
            "2012-09-14",
            17,
            55,
            "Y"
          ],
          [
            111,
            "CDISCPILOT01",
            "AE",
            "01-701-1192",
            5,
            "E08",
            "SECRETION DISCHARGE",
            "SECRETION DISCHARGE",
            null,
            "SECRETION DISCHARGE",
            null,
            "HLT_0683",
            null,
            "HLGT_0575",
            null,
            "GENERAL DISORDERS AND ADMINISTRATION SITE CONDITIONS",
            null,
            "GENERAL DISORDERS AND ADMINISTRATION SITE CONDITIONS",
            null,
            "MILD",
            "N",
            "",
            "NONE",
            "RECOVERED/RESOLVED",
            "N",
            "N",
            "N",
            "N",
            "N",
            "N",
            "N",
            "2012-09-23",
            "2012-08-07",
            "2012-09-14",
            17,
            55,
            "Y"
          ],
          [
            112,
            "CDISCPILOT01",
            "AE",
            "01-701-1203",
            1,
            "E05",
            "EYE LASER SURGERY",
            "EYE LASER SURGERY",
            null,
            "EYE LASER SURGERY",
            null,
            "HLT_0355",
            null,
            "HLGT_0189",
            null,
            "SURGICAL AND MEDICAL PROCEDURES",
            null,
            "SURGICAL AND MEDICAL PROCEDURES",
            null,
            "MILD",
            "N",
            "",
            "NONE",
            "RECOVERED/RESOLVED",
            "N",
            "N",
            "N",
            "N",
            "N",
            "N",
            "N",
            "2013-03-30",
            "2013-03-21",
            "2013-03-21",
            48,
            48,
            "Y"
          ],
          [
            113,
            "CDISCPILOT01",
            "AE",
            "01-701-1211",
            5,
            "E05",
            "アプリケーションサイトの紅斑",
            "APPLICATION SITE REDNESS",
            null,
            "APPLICATION SITE ERYTHEMA",
            null,
            "HLT_0617",
            null,
            "HLGT_0152",
            null,
            "GENERAL DISORDERS AND ADMINISTRATION SITE CONDITIONS",
            null,
            "GENERAL DISORDERS AND ADMINISTRATION SITE CONDITIONS",
            null,
            "MILD",
            "N",
            "",
            "POSSIBLE",
            "NOT RECOVERED/NOT RESOLVED",
            "N",
            "N",
            "N",
            "N",
            "N",
            "N",
            "N",
            "2012-12-11",
            "2012-11-29",
            "",
            15,
            null,
            "Y"
          ],
          [
            114,
            "CDISCPILOT01",
            "AE",
            "01-701-1211",
            1,
            "E08",
            "アプリケーションサイトのかゆみ",
            "APPLICATION SITE ITCHING",
            null,
            "APPLICATION SITE PRURITUS",
            null,
            "HLT_0317",
            null,
            "HLGT_0338",
            null,
            "GENERAL DISORDERS AND ADMINISTRATION SITE CONDITIONS",
            null,
            "GENERAL DISORDERS AND ADMINISTRATION SITE CONDITIONS",
            null,
            "MILD",
            "N",
            "",
            "POSSIBLE",
            "NOT RECOVERED/NOT RESOLVED",
            "N",
            "N",
            "N",
            "N",
            "N",
            "N",
            "N",
            "2012-11-28",
            "2012-11-16",
            "",
            2,
            null,
            "Y"
          ],
          [
            115,
            "CDISCPILOT01",
            "AE",
            "01-701-1211",
            7,
            "E12",
            "CONFUSIONAL STATE",
            "CONFUSION",
            null,
            "CONFUSIONAL STATE",
            null,
            "HLT_0642",
            null,
            "HLGT_0329",
            null,
            "PSYCHIATRIC DISORDERS",
            null,
            "PSYCHIATRIC DISORDERS",
            null,
            "MODERATE",
            "N",
            "",
            "NONE",
            "NOT RECOVERED/NOT RESOLVED",
            "N",
            "N",
            "N",
            "N",
            "N",
            "N",
            "N",
            "2013-01-14",
            "2013-01-11",
            "",
            58,
            null,
            "Y"
          ],
          [
            116,
            "CDISCPILOT01",
            "AE",
            "01-701-1211",
            8,
            "E13",
            "DYSPNOEA",
            "SHORTNESS OF BREATH",
            null,
            "DYSPNOEA",
            null,
            "HLT_0296",
            null,
            "HLGT_0255",
            null,
            "RESPIRATORY THORACIC AND MEDIASTINAL DISORDERS",
            null,
            "RESPIRATORY THORACIC AND MEDIASTINAL DISORDERS",
            null,
            "MODERATE",
            "N",
            "",
            "NONE",
            "NOT RECOVERED/NOT RESOLVED",
            "N",
            "N",
            "N",
            "N",
            "N",
            "N",
            "N",
            "2013-01-14",
            "2013-01-11",
            "",
            58,
            null,
            "Y"
          ],
          [
            117,
            "CDISCPILOT01",
            "AE",
            "01-701-1211",
            4,
            "E09",
            "INCONTINENCE",
            "INCONTINENCE",
            null,
            "INCONTINENCE",
            null,
            "HLT_0560",
            null,
            "HLGT_0503",
            null,
            "RENAL AND URINARY DISORDERS",
            null,
            "RENAL AND URINARY DISORDERS",
            null,
            "MILD",
            "N",
            "",
            "NONE",
            "NOT RECOVERED/NOT RESOLVED",
            "N",
            "N",
            "N",
            "N",
            "N",
            "N",
            "N",
            "2012-11-28",
            "2012-11-22",
            "",
            8,
            null,
            "Y"
          ],
          [
            118,
            "CDISCPILOT01",
            "AE",
            "01-701-1211",
            2,
            "E03",
            "JOINT DISLOCATION",
            "SHOULDER DISLOCATION",
            null,
            "JOINT DISLOCATION",
            null,
            "HLT_0035",
            null,
            "HLGT_0227",
            null,
            "INJURY POISONING AND PROCEDURAL COMPLICATIONS",
            null,
            "INJURY POISONING AND PROCEDURAL COMPLICATIONS",
            null,
            "MODERATE",
            "N",
            "",
            "NONE",
            "RECOVERED/RESOLVED",
            "N",
            "N",
            "N",
            "N",
            "N",
            "N",
            "N",
            "2012-11-28",
            "2012-11-21",
            "2012-11-21",
            7,
            7,
            "Y"
          ],
          [
            119,
            "CDISCPILOT01",
            "AE",
            "01-701-1211",
            3,
            "E04",
            "SHOULDER PAIN",
            "SHOULDER PAIN",
            null,
            "SHOULDER PAIN",
            null,
            "HLT_0527",
            null,
            "HLGT_0288",
            null,
            "MUSCULOSKELETAL AND CONNECTIVE TISSUE DISORDERS",
            null,
            "MUSCULOSKELETAL AND CONNECTIVE TISSUE DISORDERS",
            null,
            "MILD",
            "N",
            "",
            "NONE",
            "NOT RECOVERED/NOT RESOLVED",
            "N",
            "N",
            "N",
            "N",
            "N",
            "N",
            "N",
            "2012-11-28",
            "2012-11-21",
            "",
            7,
            null,
            "Y"
          ],
          [
            120,
            "CDISCPILOT01",
            "AE",
            "01-701-1211",
            6,
            "E06",
            "SKIN LACERATION",
            "LACERATION OF FACE",
            null,
            "SKIN LACERATION",
            null,
            "HLT_0075",
            null,
            "HLGT_0118",
            null,
            "INJURY POISONING AND PROCEDURAL COMPLICATIONS",
            null,
            "INJURY POISONING AND PROCEDURAL COMPLICATIONS",
            null,
            "MILD",
            "N",
            "",
            "NONE",
            "NOT RECOVERED/NOT RESOLVED",
            "N",
            "N",
            "N",
            "N",
            "N",
            "N",
            "N",
            "2012-12-11",
            "2012-12-09",
            "",
            25,
            null,
            "Y"
          ],
          [
            121,
            "CDISCPILOT01",
            "AE",
            "01-701-1211",
            9,
            "E11",
            "SUDDEN DEATH",
            "SUDDEN DEATH",
            null,
            "SUDDEN DEATH",
            null,
            "HLT_0142",
            null,
            "HLGT_0272",
            null,
            "GENERAL DISORDERS AND ADMINISTRATION SITE CONDITIONS",
            null,
            "GENERAL DISORDERS AND ADMINISTRATION SITE CONDITIONS",
            null,
            "SEVERE",
            "N",
            "",
            "NONE",
            "FATAL",
            "N",
            "N",
            "N",
            "Y",
            "N",
            "Y",
            "N",
            "2013-01-14",
            "2013-01-14",
            "2013-01-14",
            61,
            61,
            "Y"
          ],
          [
            122,
            "CDISCPILOT01",
            "AE",
            "01-701-1239",
            4,
            "E13",
            "アプリケーションサイトの刺激",
            "APPLICATION SITE IRRITATION",
            null,
            "APPLICATION SITE IRRITATION",
            null,
            "HLT_0061",
            null,
            "HLGT_0346",
            null,
            "GENERAL DISORDERS AND ADMINISTRATION SITE CONDITIONS",
            null,
            "GENERAL DISORDERS AND ADMINISTRATION SITE CONDITIONS",
            null,
            "MILD",
            "N",
            "",
            "PROBABLE",
            "NOT RECOVERED/NOT RESOLVED",
            "N",
            "N",
            "N",
            "N",
            "N",
            "N",
            "N",
            "2014-01-25",
            "2014-01-20",
            "2014-02-08",
            10,
            29,
            "Y"
          ],
          [
            123,
            "CDISCPILOT01",
            "AE",
            "01-701-1239",
            5,
            "E13",
            "アプリケーションサイトの刺激",
            "APPLICATION SITE IRRITATION",
            null,
            "APPLICATION SITE IRRITATION",
            null,
            "HLT_0061",
            null,
            "HLGT_0346",
            null,
            "GENERAL DISORDERS AND ADMINISTRATION SITE CONDITIONS",
            null,
            "GENERAL DISORDERS AND ADMINISTRATION SITE CONDITIONS",
            null,
            "MILD",
            "N",
            "",
            "PROBABLE",
            "RECOVERED/RESOLVED",
            "N",
            "N",
            "N",
            "N",
            "N",
            "N",
            "N",
            "2014-02-10",
            "2014-01-20",
            "2014-02-08",
            10,
            29,
            "Y"
          ],
          [
            124,
            "CDISCPILOT01",
            "AE",
            "01-701-1239",
            1,
            "E11",
            "紅斑 ",
            "ERYTHEMA",
            null,
            "ERYTHEMA",
            null,
            "HLT_0284",
            null,
            "HLGT_0192",
            null,
            "SKIN AND SUBCUTANEOUS TISSUE DISORDERS",
            null,
            "SKIN AND SUBCUTANEOUS TISSUE DISORDERS",
            null,
            "MILD",
            "N",
            "",
            "POSSIBLE",
            "NOT RECOVERED/NOT RESOLVED",
            "N",
            "N",
            "N",
            "N",
            "N",
            "N",
            "N",
            "2014-01-25",
            "2014-01-12",
            "",
            2,
            null,
            "Y"
          ],
          [
            125,
            "CDISCPILOT01",
            "AE",
            "01-701-1239",
            6,
            "E11",
            "紅斑 ",
            "ERYTHEMA",
            null,
            "ERYTHEMA",
            null,
            "HLT_0284",
            null,
            "HLGT_0192",
            null,
            "SKIN AND SUBCUTANEOUS TISSUE DISORDERS",
            null,
            "SKIN AND SUBCUTANEOUS TISSUE DISORDERS",
            null,
            "MODERATE",
            "N",
            "",
            "POSSIBLE",
            "NOT RECOVERED/NOT RESOLVED",
            "N",
            "N",
            "N",
            "N",
            "N",
            "N",
            "N",
            "2014-02-19",
            "2014-01-12",
            "",
            2,
            null,
            "Y"
          ],
          [
            126,
            "CDISCPILOT01",
            "AE",
            "01-701-1239",
            9,
            "E16",
            "倦怠感",
            "FATIGUE",
            null,
            "FATIGUE",
            null,
            "HLT_0043",
            null,
            "HLGT_0181",
            null,
            "GENERAL DISORDERS AND ADMINISTRATION SITE CONDITIONS",
            null,
            "GENERAL DISORDERS AND ADMINISTRATION SITE CONDITIONS",
            null,
            "MILD",
            "N",
            "",
            "REMOTE",
            "NOT RECOVERED/NOT RESOLVED",
            "N",
            "N",
            "N",
            "N",
            "N",
            "N",
            "N",
            "2014-04-02",
            "2014-03",
            "",
            null,
            null,
            "Y"
          ],
          [
            127,
            "CDISCPILOT01",
            "AE",
            "01-701-1239",
            10,
            "E17",
            "HORDEOLUM",
            "STYE",
            null,
            "HORDEOLUM",
            null,
            "HLT_0604",
            null,
            "HLGT_0290",
            null,
            "INFECTIONS AND INFESTATIONS",
            null,
            "INFECTIONS AND INFESTATIONS",
            null,
            "MILD",
            "N",
            "",
            "NONE",
            "NOT RECOVERED/NOT RESOLVED",
            "N",
            "N",
            "N",
            "N",
            "N",
            "N",
            "N",
            "2014-05-02",
            "2014-04",
            "",
            null,
            null,
            "Y"
          ],
          [
            128,
            "CDISCPILOT01",
            "AE",
            "01-701-1239",
            3,
            "E12",
            "かゆみ",
            "ITCHING",
            null,
            "PRURITUS",
            null,
            "HLT_0778",
            null,
            "HLGT_0695",
            null,
            "SKIN AND SUBCUTANEOUS TISSUE DISORDERS",
            null,
            "SKIN AND SUBCUTANEOUS TISSUE DISORDERS",
            null,
            "MILD",
            "N",
            "",
            "POSSIBLE",
            "NOT RECOVERED/NOT RESOLVED",
            "N",
            "N",
            "N",
            "N",
            "N",
            "N",
            "N",
            "2014-01-25",
            "2014-01-13",
            "",
            3,
            null,
            "Y"
          ],
          [
            129,
            "CDISCPILOT01",
            "AE",
            "01-701-1239",
            2,
            "E15",
            "SKIN ODOUR ABNORMAL",
            "SKIN ODOR ABNORMAL",
            null,
            "SKIN ODOUR ABNORMAL",
            null,
            "HLT_0510",
            null,
            "HLGT_0184",
            null,
            "SKIN AND SUBCUTANEOUS TISSUE DISORDERS",
            null,
            "SKIN AND SUBCUTANEOUS TISSUE DISORDERS",
            null,
            "MILD",
            "N",
            "",
            "REMOTE",
            "NOT RECOVERED/NOT RESOLVED",
            "N",
            "N",
            "N",
            "N",
            "N",
            "N",
            "N",
            "2014-01-25",
            "2014-01-12",
            "",
            2,
            null,
            "Y"
          ],
          [
            130,
            "CDISCPILOT01",
            "AE",
            "01-701-1239",
            7,
            "E14",
            "UPPER RESPIRATORY TRACT INFECTION",
            "UPPER RESPIRATORY INFECTION",
            null,
            "UPPER RESPIRATORY TRACT INFECTION",
            null,
            "HLT_0520",
            null,
            "HLGT_0489",
            null,
            "INFECTIONS AND INFESTATIONS",
            null,
            "INFECTIONS AND INFESTATIONS",
            null,
            "MILD",
            "N",
            "",
            "NONE",
            "NOT RECOVERED/NOT RESOLVED",
            "N",
            "N",
            "N",
            "N",
            "N",
            "N",
            "N",
            "2014-03-06",
            "2014-02-20",
            "2014-03-12",
            41,
            61,
            "Y"
          ],
          [
            131,
            "CDISCPILOT01",
            "AE",
            "01-701-1239",
            8,
            "E14",
            "UPPER RESPIRATORY TRACT INFECTION",
            "UPPER RESPIRATORY INFECTION",
            null,
            "UPPER RESPIRATORY TRACT INFECTION",
            null,
            "HLT_0520",
            null,
            "HLGT_0489",
            null,
            "INFECTIONS AND INFESTATIONS",
            null,
            "INFECTIONS AND INFESTATIONS",
            null,
            "MILD",
            "N",
            "",
            "NONE",
            "RECOVERED/RESOLVED",
            "N",
            "N",
            "N",
            "N",
            "N",
            "N",
            "N",
            "2014-04-02",
            "2014-02-20",
            "2014-03-12",
            41,
            61,
            "Y"
          ],
          [
            132,
            "CDISCPILOT01",
            "AE",
            "01-701-1275",
            7,
            "E09",
            "咳",
            "COUGH",
            null,
            "COUGH",
            null,
            "HLT_0701",
            null,
            "HLGT_0280",
            null,
            "RESPIRATORY THORACIC AND MEDIASTINAL DISORDERS",
            null,
            "RESPIRATORY THORACIC AND MEDIASTINAL DISORDERS",
            null,
            "MILD",
            "N",
            "",
            "NONE",
            "NOT RECOVERED/NOT RESOLVED",
            "N",
            "N",
            "N",
            "N",
            "N",
            "N",
            "N",
            "2014-03-22",
            "2014-03-12",
            "2014-03-27",
            34,
            49,
            "Y"
          ],
          [
            133,
            "CDISCPILOT01",
            "AE",
            "01-701-1275",
            9,
            "E09",
            "咳",
            "COUGH",
            null,
            "COUGH",
            null,
            "HLT_0701",
            null,
            "HLGT_0280",
            null,
            "RESPIRATORY THORACIC AND MEDIASTINAL DISORDERS",
            null,
            "RESPIRATORY THORACIC AND MEDIASTINAL DISORDERS",
            null,
            "MILD",
            "N",
            "",
            "NONE",
            "RECOVERED/RESOLVED",
            "N",
            "N",
            "N",
            "N",
            "N",
            "N",
            "N",
            "2014-04-05",
            "2014-03-12",
            "2014-03-27",
            34,
            49,
            "Y"
          ],
          [
            134,
            "CDISCPILOT01",
            "AE",
            "01-701-1275",
            3,
            "E06",
            "紅斑 ",
            "ERYTHEMA",
            null,
            "ERYTHEMA",
            null,
            "HLT_0284",
            null,
            "HLGT_0192",
            null,
            "SKIN AND SUBCUTANEOUS TISSUE DISORDERS",
            null,
            "SKIN AND SUBCUTANEOUS TISSUE DISORDERS",
            null,
            "MILD",
            "N",
            "",
            "POSSIBLE",
            "NOT RECOVERED/NOT RESOLVED",
            "N",
            "N",
            "N",
            "N",
            "N",
            "N",
            "N",
            "2014-03-07",
            "2014-02-24",
            "2014-06-12",
            18,
            126,
            "Y"
          ],
          [
            135,
            "CDISCPILOT01",
            "AE",
            "01-701-1275",
            12,
            "E06",
            "紅斑 ",
            "ERYTHEMA",
            null,
            "ERYTHEMA",
            null,
            "HLT_0284",
            null,
            "HLGT_0192",
            null,
            "SKIN AND SUBCUTANEOUS TISSUE DISORDERS",
            null,
            "SKIN AND SUBCUTANEOUS TISSUE DISORDERS",
            null,
            "MILD",
            "N",
            "",
            "POSSIBLE",
            "RECOVERED/RESOLVED",
            "N",
            "N",
            "N",
            "N",
            "N",
            "N",
            "N",
            "2014-06-14",
            "2014-02-24",
            "2014-06-12",
            18,
            126,
            "Y"
          ],
          [
            136,
            "CDISCPILOT01",
            "AE",
            "01-701-1275",
            8,
            "E10",
            "鼻詰まり",
            "NASAL CONGESTION",
            null,
            "NASAL CONGESTION",
            null,
            "HLT_0118",
            null,
            "HLGT_0549",
            null,
            "RESPIRATORY THORACIC AND MEDIASTINAL DISORDERS",
            null,
            "RESPIRATORY THORACIC AND MEDIASTINAL DISORDERS",
            null,
            "MILD",
            "N",
            "",
            "NONE",
            "NOT RECOVERED/NOT RESOLVED",
            "N",
            "N",
            "N",
            "N",
            "N",
            "N",
            "N",
            "2014-03-22",
            "2014-03-12",
            "2014-03-27",
            34,
            49,
            "Y"
          ],
          [
            137,
            "CDISCPILOT01",
            "AE",
            "01-701-1275",
            10,
            "E10",
            "鼻詰まり",
            "NASAL CONGESTION",
            null,
            "NASAL CONGESTION",
            null,
            "HLT_0118",
            null,
            "HLGT_0549",
            null,
            "RESPIRATORY THORACIC AND MEDIASTINAL DISORDERS",
            null,
            "RESPIRATORY THORACIC AND MEDIASTINAL DISORDERS",
            null,
            "MILD",
            "N",
            "",
            "NONE",
            "RECOVERED/RESOLVED",
            "N",
            "N",
            "N",
            "N",
            "N",
            "N",
            "N",
            "2014-04-05",
            "2014-03-12",
            "2014-03-27",
            34,
            49,
            "Y"
          ],
          [
            138,
            "CDISCPILOT01",
            "AE",
            "01-701-1275",
            1,
            "E04",
            "吐き気",
            "NAUSEA",
            null,
            "NAUSEA",
            null,
            "HLT_0742",
            null,
            "HLGT_0326",
            null,
            "GASTROINTESTINAL DISORDERS",
            null,
            "GASTROINTESTINAL DISORDERS",
            null,
            "MILD",
            "N",
            "",
            "POSSIBLE",
            "NOT RECOVERED/NOT RESOLVED",
            "N",
            "N",
            "N",
            "N",
            "N",
            "N",
            "N",
            "2014-02-22",
            "2014-02-13",
            "2014-06-03",
            7,
            117,
            "Y"
          ],
          [
            139,
            "CDISCPILOT01",
            "AE",
            "01-701-1275",
            11,
            "E04",
            "吐き気",
            "NAUSEA",
            null,
            "NAUSEA",
            null,
            "HLT_0742",
            null,
            "HLGT_0326",
            null,
            "GASTROINTESTINAL DISORDERS",
            null,
            "GASTROINTESTINAL DISORDERS",
            null,
            "MILD",
            "N",
            "",
            "POSSIBLE",
            "RECOVERED/RESOLVED",
            "N",
            "N",
            "N",
            "N",
            "N",
            "N",
            "N",
            "2014-06-14",
            "2014-02-13",
            "2014-06-03",
            7,
            117,
            "Y"
          ],
          [
            140,
            "CDISCPILOT01",
            "AE",
            "01-701-1275",
            5,
            "E08",
            "刺激性異臭症",
            "STRANGE SMELL SENSATION",
            null,
            "PAROSMIA",
            null,
            "HLT_0258",
            null,
            "HLGT_0471",
            null,
            "NERVOUS SYSTEM DISORDERS",
            null,
            "NERVOUS SYSTEM DISORDERS",
            null,
            "MILD",
            "N",
            "",
            "POSSIBLE",
            "NOT RECOVERED/NOT RESOLVED",
            "N",
            "N",
            "N",
            "N",
            "N",
            "N",
            "N",
            "2014-03-07",
            "2014-02-24",
            "2014-06-03",
            18,
            117,
            "Y"
          ],
          [
            141,
            "CDISCPILOT01",
            "AE",
            "01-701-1275",
            14,
            "E08",
            "刺激性異臭症",
            "STRANGE SMELL SENSATION",
            null,
            "PAROSMIA",
            null,
            "HLT_0258",
            null,
            "HLGT_0471",
            null,
            "NERVOUS SYSTEM DISORDERS",
            null,
            "NERVOUS SYSTEM DISORDERS",
            null,
            "MILD",
            "N",
            "",
            "POSSIBLE",
            "RECOVERED/RESOLVED",
            "N",
            "N",
            "N",
            "N",
            "N",
            "N",
            "N",
            "2014-06-14",
            "2014-02-24",
            "2014-06-03",
            18,
            117,
            "Y"
          ],
          [
            142,
            "CDISCPILOT01",
            "AE",
            "01-701-1275",
            6,
            "E11",
            "かゆみ",
            "ITCHING",
            null,
            "PRURITUS",
            null,
            "HLT_0778",
            null,
            "HLGT_0695",
            null,
            "SKIN AND SUBCUTANEOUS TISSUE DISORDERS",
            null,
            "SKIN AND SUBCUTANEOUS TISSUE DISORDERS",
            null,
            "MILD",
            "N",
            "",
            "POSSIBLE",
            "NOT RECOVERED/NOT RESOLVED",
            "N",
            "N",
            "N",
            "N",
            "N",
            "N",
            "N",
            "2014-03-07",
            "2014-02-24",
            "2014-06-12",
            18,
            126,
            "Y"
          ],
          [
            143,
            "CDISCPILOT01",
            "AE",
            "01-701-1275",
            15,
            "E11",
            "かゆみ",
            "ITCHING",
            null,
            "PRURITUS",
            null,
            "HLT_0778",
            null,
            "HLGT_0695",
            null,
            "SKIN AND SUBCUTANEOUS TISSUE DISORDERS",
            null,
            "SKIN AND SUBCUTANEOUS TISSUE DISORDERS",
            null,
            "MILD",
            "N",
            "",
            "POSSIBLE",
            "RECOVERED/RESOLVED",
            "N",
            "N",
            "N",
            "N",
            "N",
            "N",
            "N",
            "2014-06-14",
            "2014-02-24",
            "2014-06-12",
            18,
            126,
            "Y"
          ],
          [
            144,
            "CDISCPILOT01",
            "AE",
            "01-701-1275",
            4,
            "E07",
            "SALIVARY HYPERSECRETION",
            "HYPERSALIVATION",
            null,
            "SALIVARY HYPERSECRETION",
            null,
            "HLT_0374",
            null,
            "HLGT_0488",
            null,
            "GASTROINTESTINAL DISORDERS",
            null,
            "GASTROINTESTINAL DISORDERS",
            null,
            "MILD",
            "N",
            "",
            "POSSIBLE",
            "NOT RECOVERED/NOT RESOLVED",
            "N",
            "N",
            "N",
            "N",
            "N",
            "N",
            "N",
            "2014-03-07",
            "2014-02-24",
            "2014-06-03",
            18,
            117,
            "Y"
          ],
          [
            145,
            "CDISCPILOT01",
            "AE",
            "01-701-1275",
            13,
            "E07",
            "SALIVARY HYPERSECRETION",
            "HYPERSALIVATION",
            null,
            "SALIVARY HYPERSECRETION",
            null,
            "HLT_0374",
            null,
            "HLGT_0488",
            null,
            "GASTROINTESTINAL DISORDERS",
            null,
            "GASTROINTESTINAL DISORDERS",
            null,
            "MILD",
            "N",
            "",
            "POSSIBLE",
            "RECOVERED/RESOLVED",
            "N",
            "N",
            "N",
            "N",
            "N",
            "N",
            "N",
            "2014-06-14",
            "2014-02-24",
            "2014-06-03",
            18,
            117,
            "Y"
          ],
          [
            146,
            "CDISCPILOT01",
            "AE",
            "01-701-1275",
            2,
            "E05",
            "嘔吐",
            "VOMITING",
            null,
            "VOMITING",
            null,
            "HLT_0016",
            null,
            "HLGT_0350",
            null,
            "GASTROINTESTINAL DISORDERS",
            null,
            "GASTROINTESTINAL DISORDERS",
            null,
            "MILD",
            "N",
            "",
            "POSSIBLE",
            "RECOVERED/RESOLVED",
            "N",
            "N",
            "N",
            "N",
            "N",
            "N",
            "N",
            "2014-03-07",
            "2014-02-23",
            "2014-02-23",
            17,
            17,
            "Y"
          ],
          [
            147,
            "CDISCPILOT01",
            "AE",
            "01-701-1287",
            3,
            "E04",
            "アプリケーションサイトの紅斑",
            "APPLICATION SITE REDNESS",
            null,
            "APPLICATION SITE ERYTHEMA",
            null,
            "HLT_0617",
            null,
            "HLGT_0152",
            null,
            "GENERAL DISORDERS AND ADMINISTRATION SITE CONDITIONS",
            null,
            "GENERAL DISORDERS AND ADMINISTRATION SITE CONDITIONS",
            null,
            "MILD",
            "N",
            "",
            "PROBABLE",
            "NOT RECOVERED/NOT RESOLVED",
            "N",
            "N",
            "N",
            "N",
            "N",
            "N",
            "N",
            "2014-03-21",
            "2014-03-09",
            "",
            44,
            null,
            "Y"
          ],
          [
            148,
            "CDISCPILOT01",
            "AE",
            "01-701-1287",
            2,
            "E03",
            "アプリケーションサイトのかゆみ",
            "APPLICATION SITE ITCHING",
            null,
            "APPLICATION SITE PRURITUS",
            null,
            "HLT_0317",
            null,
            "HLGT_0338",
            null,
            "GENERAL DISORDERS AND ADMINISTRATION SITE CONDITIONS",
            null,
            "GENERAL DISORDERS AND ADMINISTRATION SITE CONDITIONS",
            null,
            "MILD",
            "N",
            "",
            "POSSIBLE",
            "NOT RECOVERED/NOT RESOLVED",
            "N",
            "N",
            "N",
            "N",
            "N",
            "N",
            "N",
            "2014-03-06",
            "2014-02-22",
            "",
            29,
            null,
            "Y"
          ],
          [
            149,
            "CDISCPILOT01",
            "AE",
            "01-701-1287",
            4,
            "E05",
            "RHINORRHOEA",
            "RUNNY NOSE",
            null,
            "RHINORRHOEA",
            null,
            "HLT_0635",
            null,
            "HLGT_0460",
            null,
            "RESPIRATORY THORACIC AND MEDIASTINAL DISORDERS",
            null,
            "RESPIRATORY THORACIC AND MEDIASTINAL DISORDERS",
            null,
            "MILD",
            "N",
            "",
            "NONE",
            "NOT RECOVERED/NOT RESOLVED",
            "N",
            "N",
            "N",
            "N",
            "N",
            "N",
            "N",
            "2014-07-12",
            "2014-07-09",
            "2014-07-12",
            166,
            169,
            "Y"
          ],
          [
            150,
            "CDISCPILOT01",
            "AE",
            "01-701-1287",
            5,
            "E05",
            "RHINORRHOEA",
            "RUNNY NOSE",
            null,
            "RHINORRHOEA",
            null,
            "HLT_0635",
            null,
            "HLGT_0460",
            null,
            "RESPIRATORY THORACIC AND MEDIASTINAL DISORDERS",
            null,
            "RESPIRATORY THORACIC AND MEDIASTINAL DISORDERS",
            null,
            "MILD",
            "N",
            "",
            "NONE",
            "RECOVERED/RESOLVED",
            "N",
            "N",
            "N",
            "N",
            "N",
            "N",
            "N",
            "2014-07-26",
            "2014-07-09",
            "2014-07-12",
            166,
            169,
            "Y"
          ],
          [
            151,
            "CDISCPILOT01",
            "AE",
            "01-701-1287",
            1,
            "E02",
            "SALIVARY HYPERSECRETION",
            "INCREASED SALIVATION",
            null,
            "SALIVARY HYPERSECRETION",
            null,
            "HLT_0374",
            null,
            "HLGT_0488",
            null,
            "GASTROINTESTINAL DISORDERS",
            null,
            "GASTROINTESTINAL DISORDERS",
            null,
            "MILD",
            "N",
            "",
            "NONE",
            "NOT RECOVERED/NOT RESOLVED",
            "N",
            "N",
            "N",
            "N",
            "N",
            "N",
            "N",
            "2014-02-11",
            "2014-01-26",
            "",
            2,
            null,
            "Y"
          ],
          [
            152,
            "CDISCPILOT01",
            "AE",
            "01-701-1294",
            3,
            "E08",
            "アプリケーションサイトの紅斑",
            "APPLICATION SITE REDNESS",
            null,
            "APPLICATION SITE ERYTHEMA",
            null,
            "HLT_0617",
            null,
            "HLGT_0152",
            null,
            "GENERAL DISORDERS AND ADMINISTRATION SITE CONDITIONS",
            null,
            "GENERAL DISORDERS AND ADMINISTRATION SITE CONDITIONS",
            null,
            "MILD",
            "N",
            "",
            "PROBABLE",
            "NOT RECOVERED/NOT RESOLVED",
            "N",
            "N",
            "N",
            "N",
            "N",
            "N",
            "N",
            "2013-05-22",
            "2013-05-19",
            "",
            57,
            null,
            "Y"
          ],
          [
            153,
            "CDISCPILOT01",
            "AE",
            "01-701-1294",
            5,
            "E08",
            "アプリケーションサイトの紅斑",
            "APPLICATION SITE REDNESS",
            null,
            "APPLICATION SITE ERYTHEMA",
            null,
            "HLT_0617",
            null,
            "HLGT_0152",
            null,
            "GENERAL DISORDERS AND ADMINISTRATION SITE CONDITIONS",
            null,
            "GENERAL DISORDERS AND ADMINISTRATION SITE CONDITIONS",
            null,
            "MODERATE",
            "N",
            "",
            "PROBABLE",
            "NOT RECOVERED/NOT RESOLVED",
            "N",
            "N",
            "N",
            "N",
            "N",
            "N",
            "N",
            "2013-06-14",
            "2013-05-19",
            "",
            57,
            null,
            "Y"
          ],
          [
            154,
            "CDISCPILOT01",
            "AE",
            "01-701-1294",
            1,
            "E06",
            "アプリケーションサイトのかゆみ",
            "APPLICATION SITE ITCHING",
            null,
            "APPLICATION SITE PRURITUS",
            null,
            "HLT_0317",
            null,
            "HLGT_0338",
            null,
            "GENERAL DISORDERS AND ADMINISTRATION SITE CONDITIONS",
            null,
            "GENERAL DISORDERS AND ADMINISTRATION SITE CONDITIONS",
            null,
            "MODERATE",
            "N",
            "",
            "NONE",
            "RECOVERED/RESOLVED",
            "N",
            "N",
            "N",
            "N",
            "N",
            "N",
            "N",
            "2013-03-24",
            "2013-03-22",
            "2013-03-23",
            -2,
            -1,
            "N"
          ],
          [
            155,
            "CDISCPILOT01",
            "AE",
            "01-701-1294",
            2,
            "E07",
            "アプリケーションサイトのかゆみ",
            "APPLICATION SITE ITCHING",
            null,
            "APPLICATION SITE PRURITUS",
            null,
            "HLT_0317",
            null,
            "HLGT_0338",
            null,
            "GENERAL DISORDERS AND ADMINISTRATION SITE CONDITIONS",
            null,
            "GENERAL DISORDERS AND ADMINISTRATION SITE CONDITIONS",
            null,
            "MILD",
            "N",
            "",
            "POSSIBLE",
            "NOT RECOVERED/NOT RESOLVED",
            "N",
            "N",
            "N",
            "N",
            "N",
            "N",
            "N",
            "2013-05-22",
            "2013-05-19",
            "",
            57,
            null,
            "Y"
          ],
          [
            156,
            "CDISCPILOT01",
            "AE",
            "01-701-1294",
            4,
            "E07",
            "アプリケーションサイトのかゆみ",
            "APPLICATION SITE ITCHING",
            null,
            "APPLICATION SITE PRURITUS",
            null,
            "HLT_0317",
            null,
            "HLGT_0338",
            null,
            "GENERAL DISORDERS AND ADMINISTRATION SITE CONDITIONS",
            null,
            "GENERAL DISORDERS AND ADMINISTRATION SITE CONDITIONS",
            null,
            "MODERATE",
            "N",
            "",
            "POSSIBLE",
            "NOT RECOVERED/NOT RESOLVED",
            "N",
            "N",
            "N",
            "N",
            "N",
            "N",
            "N",
            "2013-06-14",
            "2013-05-19",
            "",
            57,
            null,
            "Y"
          ],
          [
            157,
            "CDISCPILOT01",
            "AE",
            "01-701-1294",
            6,
            "E09",
            "RASH ERYTHEMATOUS",
            "ERYTHEMATOUS RASH",
            null,
            "RASH ERYTHEMATOUS",
            null,
            "HLT_0336",
            null,
            "HLGT_0701",
            null,
            "SKIN AND SUBCUTANEOUS TISSUE DISORDERS",
            null,
            "SKIN AND SUBCUTANEOUS TISSUE DISORDERS",
            null,
            "MODERATE",
            "N",
            "",
            "PROBABLE",
            "NOT RECOVERED/NOT RESOLVED",
            "N",
            "N",
            "N",
            "N",
            "N",
            "N",
            "N",
            "2013-06-14",
            "2013-06-10",
            "",
            79,
            null,
            "Y"
          ],
          [
            158,
            "CDISCPILOT01",
            "AE",
            "01-701-1302",
            16,
            "E27",
            "アプリケーションサイトの紅斑",
            "APPLICATION SITE REDNESS",
            null,
            "APPLICATION SITE ERYTHEMA",
            null,
            "HLT_0617",
            null,
            "HLGT_0152",
            null,
            "GENERAL DISORDERS AND ADMINISTRATION SITE CONDITIONS",
            null,
            "GENERAL DISORDERS AND ADMINISTRATION SITE CONDITIONS",
            null,
            "MILD",
            "N",
            "",
            "PROBABLE",
            "NOT RECOVERED/NOT RESOLVED",
            "N",
            "N",
            "N",
            "N",
            "N",
            "N",
            "N",
            "2013-10-22",
            "2013-10-15",
            "",
            48,
            null,
            "Y"
          ],
          [
            159,
            "CDISCPILOT01",
            "AE",
            "01-701-1302",
            1,
            "E21",
            "APPLICATION SITE PERSPIRATION",
            "APPLICATION SITE PERSPIRATION",
            null,
            "APPLICATION SITE PERSPIRATION",
            null,
            "HLT_0283",
            null,
            "HLGT_0403",
            null,
            "GENERAL DISORDERS AND ADMINISTRATION SITE CONDITIONS",
            null,
            "GENERAL DISORDERS AND ADMINISTRATION SITE CONDITIONS",
            null,
            "MILD",
            "N",
            "",
            "POSSIBLE",
            "NOT RECOVERED/NOT RESOLVED",
            "N",
            "N",
            "N",
            "N",
            "N",
            "N",
            "N",
            "2013-09-15",
            "2013-08-30",
            "",
            2,
            null,
            "Y"
          ],
          [
            160,
            "CDISCPILOT01",
            "AE",
            "01-701-1302",
            17,
            "E28",
            "アプリケーションサイトのかゆみ",
            "APPLICATION SITE ITCHING",
            null,
            "APPLICATION SITE PRURITUS",
            null,
            "HLT_0317",
            null,
            "HLGT_0338",
            null,
            "GENERAL DISORDERS AND ADMINISTRATION SITE CONDITIONS",
            null,
            "GENERAL DISORDERS AND ADMINISTRATION SITE CONDITIONS",
            null,
            "MILD",
            "N",
            "",
            "PROBABLE",
            "NOT RECOVERED/NOT RESOLVED",
            "N",
            "N",
            "N",
            "N",
            "N",
            "N",
            "N",
            "2013-10-22",
            "2013-10-15",
            "",
            48,
            null,
            "Y"
          ],
          [
            161,
            "CDISCPILOT01",
            "AE",
            "01-701-1302",
            12,
            "E19",
            "CONTUSION",
            "BRUISE",
            null,
            "CONTUSION",
            null,
            "HLT_0713",
            null,
            "HLGT_0381",
            null,
            "INJURY POISONING AND PROCEDURAL COMPLICATIONS",
            null,
            "INJURY POISONING AND PROCEDURAL COMPLICATIONS",
            null,
            "MILD",
            "N",
            "",
            "REMOTE",
            "NOT RECOVERED/NOT RESOLVED",
            "N",
            "N",
            "N",
            "N",
            "N",
            "N",
            "N",
            "2013-09-15",
            "2013-09-05",
            "2013-10-08",
            8,
            41,
            "Y"
          ],
          [
            162,
            "CDISCPILOT01",
            "AE",
            "01-701-1302",
            15,
            "E19",
            "CONTUSION",
            "BRUISE",
            null,
            "CONTUSION",
            null,
            "HLT_0713",
            null,
            "HLGT_0381",
            null,
            "INJURY POISONING AND PROCEDURAL COMPLICATIONS",
            null,
            "INJURY POISONING AND PROCEDURAL COMPLICATIONS",
            null,
            "MILD",
            "N",
            "",
            "REMOTE",
            "RECOVERED/RESOLVED",
            "N",
            "N",
            "N",
            "N",
            "N",
            "N",
            "N",
            "2013-10-22",
            "2013-09-05",
            "2013-10-08",
            8,
            41,
            "Y"
          ],
          [
            163,
            "CDISCPILOT01",
            "AE",
            "01-701-1302",
            9,
            "E17",
            "DIZZINESS",
            "DIZZY",
            null,
            "DIZZINESS",
            null,
            "HLT_0619",
            null,
            "HLGT_0751",
            null,
            "NERVOUS SYSTEM DISORDERS",
            null,
            "NERVOUS SYSTEM DISORDERS",
            null,
            "MODERATE",
            "N",
            "",
            "REMOTE",
            "RECOVERED/RESOLVED",
            "N",
            "N",
            "N",
            "N",
            "N",
            "N",
            "N",
            "2013-09-15",
            "2013-09-02",
            "2013-09-03",
            5,
            6,
            "Y"
          ],
          [
            164,
            "CDISCPILOT01",
            "AE",
            "01-701-1302",
            11,
            "E20",
            "DIZZINESS",
            "LIGHTHEADEDNESS",
            null,
            "DIZZINESS",
            null,
            "HLT_0619",
            null,
            "HLGT_0751",
            null,
            "NERVOUS SYSTEM DISORDERS",
            null,
            "NERVOUS SYSTEM DISORDERS",
            null,
            "MILD",
            "N",
            "",
            "POSSIBLE",
            "NOT RECOVERED/NOT RESOLVED",
            "N",
            "N",
            "N",
            "N",
            "N",
            "N",
            "N",
            "2013-09-15",
            "2013-09-04",
            "",
            7,
            null,
            "Y"
          ],
          [
            165,
            "CDISCPILOT01",
            "AE",
            "01-701-1302",
            14,
            "E25",
            "EPISTAXIS",
            "NOSE BLEED",
            null,
            "EPISTAXIS",
            null,
            "HLT_0386",
            null,
            "HLGT_0577",
            null,
            "RESPIRATORY THORACIC AND MEDIASTINAL DISORDERS",
            null,
            "RESPIRATORY THORACIC AND MEDIASTINAL DISORDERS",
            null,
            "MILD",
            "N",
            "",
            "REMOTE",
            "NOT RECOVERED/NOT RESOLVED",
            "N",
            "N",
            "N",
            "N",
            "N",
            "N",
            "N",
            "2013-10-08",
            "2013-09-30",
            "",
            33,
            null,
            "Y"
          ],
          [
            166,
            "CDISCPILOT01",
            "AE",
            "01-701-1302",
            21,
            "E31",
            "FEELING ABNORMAL",
            "FOGGY FEELING IN HEAD",
            null,
            "FEELING ABNORMAL",
            null,
            "HLT_0524",
            null,
            "HLGT_0749",
            null,
            "GENERAL DISORDERS AND ADMINISTRATION SITE CONDITIONS",
            null,
            "GENERAL DISORDERS AND ADMINISTRATION SITE CONDITIONS",
            null,
            "MILD",
            "N",
            "",
            "POSSIBLE",
            "NOT RECOVERED/NOT RESOLVED",
            "N",
            "N",
            "N",
            "N",
            "N",
            "N",
            "N",
            "2013-11-05",
            "2013-10-24",
            "",
            57,
            null,
            "Y"
          ],
          [
            167,
            "CDISCPILOT01",
            "AE",
            "01-701-1302",
            13,
            "E23",
            "頭痛",
            "HEADACHE",
            null,
            "HEADACHE",
            null,
            "HLT_0064",
            null,
            "HLGT_0344",
            null,
            "NERVOUS SYSTEM DISORDERS",
            null,
            "NERVOUS SYSTEM DISORDERS",
            null,
            "MILD",
            "N",
            "",
            "NONE",
            "NOT RECOVERED/NOT RESOLVED",
            "N",
            "N",
            "N",
            "N",
            "N",
            "N",
            "N",
            "2013-09-15",
            "2013-09-15",
            "",
            18,
            null,
            "Y"
          ],
          [
            168,
            "CDISCPILOT01",
            "AE",
            "01-701-1302",
            2,
            "E24",
            "HYPERHIDROSIS",
            "PERSPIRATION EXCESSIVE",
            null,
            "HYPERHIDROSIS",
            null,
            "HLT_0587",
            null,
            "HLGT_0005",
            null,
            "SKIN AND SUBCUTANEOUS TISSUE DISORDERS",
            null,
            "SKIN AND SUBCUTANEOUS TISSUE DISORDERS",
            null,
            "MILD",
            "N",
            "",
            "POSSIBLE",
            "NOT RECOVERED/NOT RESOLVED",
            "N",
            "N",
            "N",
            "N",
            "N",
            "N",
            "N",
            "2013-09-15",
            "2013-08-30",
            "",
            2,
            null,
            "Y"
          ],
          [
            169,
            "CDISCPILOT01",
            "AE",
            "01-701-1302",
            23,
            "E33",
            "LIBIDO DECREASED",
            "LIBIDO DECREASED",
            null,
            "LIBIDO DECREASED",
            null,
            "HLT_0338",
            null,
            "HLGT_0496",
            null,
            "PSYCHIATRIC DISORDERS",
            null,
            "PSYCHIATRIC DISORDERS",
            null,
            "MILD",
            "N",
            "",
            "POSSIBLE",
            "NOT RECOVERED/NOT RESOLVED",
            "N",
            "N",
            "N",
            "N",
            "N",
            "N",
            "N",
            "2013-11-05",
            "2013-10-24",
            "",
            57,
            null,
            "Y"
          ],
          [
            170,
            "CDISCPILOT01",
            "AE",
            "01-701-1302",
            22,
            "E32",
            "LISTLESS",
            "LISTLESSNESS",
            null,
            "LISTLESS",
            null,
            "HLT_0657",
            null,
            "HLGT_0124",
            null,
            "PSYCHIATRIC DISORDERS",
            null,
            "PSYCHIATRIC DISORDERS",
            null,
            "MILD",
            "N",
            "",
            "POSSIBLE",
            "NOT RECOVERED/NOT RESOLVED",
            "N",
            "N",
            "N",
            "N",
            "N",
            "N",
            "N",
            "2013-11-05",
            "2013-10-24",
            "",
            57,
            null,
            "Y"
          ],
          [
            171,
            "CDISCPILOT01",
            "AE",
            "01-701-1302",
            8,
            "E16",
            "MALAISE",
            "MALAISE",
            null,
            "MALAISE",
            null,
            "HLT_0456",
            null,
            "HLGT_0178",
            null,
            "GENERAL DISORDERS AND ADMINISTRATION SITE CONDITIONS",
            null,
            "GENERAL DISORDERS AND ADMINISTRATION SITE CONDITIONS",
            null,
            "MILD",
            "N",
            "",
            "REMOTE",
            "NOT RECOVERED/NOT RESOLVED",
            "N",
            "N",
            "N",
            "N",
            "N",
            "N",
            "N",
            "2013-09-15",
            "2013-09-02",
            "",
            5,
            null,
            "Y"
          ],
          [
            172,
            "CDISCPILOT01",
            "AE",
            "01-701-1302",
            18,
            "E16",
            "MALAISE",
            "MALAISE",
            null,
            "MALAISE",
            null,
            "HLT_0456",
            null,
            "HLGT_0178",
            null,
            "GENERAL DISORDERS AND ADMINISTRATION SITE CONDITIONS",
            null,
            "GENERAL DISORDERS AND ADMINISTRATION SITE CONDITIONS",
            null,
            "MODERATE",
            "N",
            "",
            "REMOTE",
            "NOT RECOVERED/NOT RESOLVED",
            "N",
            "N",
            "N",
            "N",
            "N",
            "N",
            "N",
            "2013-11-05",
            "2013-09-02",
            "",
            5,
            null,
            "Y"
          ],
          [
            173,
            "CDISCPILOT01",
            "AE",
            "01-701-1302",
            10,
            "E18",
            "MYALGIA",
            "MYALGIA",
            null,
            "MYALGIA",
            null,
            "HLT_0700",
            null,
            "HLGT_0121",
            null,
            "MUSCULOSKELETAL AND CONNECTIVE TISSUE DISORDERS",
            null,
            "MUSCULOSKELETAL AND CONNECTIVE TISSUE DISORDERS",
            null,
            "MILD",
            "N",
            "",
            "POSSIBLE",
            "NOT RECOVERED/NOT RESOLVED",
            "N",
            "N",
            "N",
            "N",
            "N",
            "N",
            "N",
            "2013-09-15",
            "2013-09-02",
            "",
            5,
            null,
            "Y"
          ],
          [
            174,
            "CDISCPILOT01",
            "AE",
            "01-701-1302",
            5,
            "E13",
            "鼻詰まり",
            "NASAL CONGESTION",
            null,
            "NASAL CONGESTION",
            null,
            "HLT_0118",
            null,
            "HLGT_0549",
            null,
            "RESPIRATORY THORACIC AND MEDIASTINAL DISORDERS",
            null,
            "RESPIRATORY THORACIC AND MEDIASTINAL DISORDERS",
            null,
            "MILD",
            "N",
            "",
            "NONE",
            "NOT RECOVERED/NOT RESOLVED",
            "N",
            "N",
            "N",
            "N",
            "N",
            "N",
            "N",
            "2013-09-15",
            "2013-09-01",
            "",
            4,
            null,
            "Y"
          ],
          [
            175,
            "CDISCPILOT01",
            "AE",
            "01-701-1302",
            4,
            "E22",
            "PAIN",
            "STINGING",
            null,
            "PAIN",
            null,
            "HLT_0314",
            null,
            "HLGT_0478",
            null,
            "GENERAL DISORDERS AND ADMINISTRATION SITE CONDITIONS",
            null,
            "GENERAL DISORDERS AND ADMINISTRATION SITE CONDITIONS",
            null,
            "MILD",
            "N",
            "",
            "POSSIBLE",
            "NOT RECOVERED/NOT RESOLVED",
            "N",
            "N",
            "N",
            "N",
            "N",
            "N",
            "N",
            "2013-09-15",
            "2013-08-31",
            "",
            3,
            null,
            "Y"
          ],
          [
            176,
            "CDISCPILOT01",
            "AE",
            "01-701-1302",
            6,
            "E14",
            "PHARYNGOLARYNGEAL PAIN",
            "SORE THROAT",
            null,
            "PHARYNGOLARYNGEAL PAIN",
            null,
            "HLT_0130",
            null,
            "HLGT_0402",
            null,
            "RESPIRATORY THORACIC AND MEDIASTINAL DISORDERS",
            null,
            "RESPIRATORY THORACIC AND MEDIASTINAL DISORDERS",
            null,
            "MILD",
            "N",
            "",
            "NONE",
            "NOT RECOVERED/NOT RESOLVED",
            "N",
            "N",
            "N",
            "N",
            "N",
            "N",
            "N",
            "2013-09-15",
            "2013-09-02",
            "",
            5,
            null,
            "Y"
          ],
          [
            177,
            "CDISCPILOT01",
            "AE",
            "01-701-1302",
            7,
            "E15",
            "PRODUCTIVE COUGH",
            "PRODUCTIVE COUGH",
            null,
            "PRODUCTIVE COUGH",
            null,
            "HLT_0545",
            null,
            "HLGT_0681",
            null,
            "RESPIRATORY THORACIC AND MEDIASTINAL DISORDERS",
            null,
            "RESPIRATORY THORACIC AND MEDIASTINAL DISORDERS",
            null,
            "MILD",
            "N",
            "",
            "NONE",
            "NOT RECOVERED/NOT RESOLVED",
            "N",
            "N",
            "N",
            "N",
            "N",
            "N",
            "N",
            "2013-09-15",
            "2013-09-02",
            "",
            5,
            null,
            "Y"
          ],
          [
            178,
            "CDISCPILOT01",
            "AE",
            "01-701-1302",
            19,
            "E29",
            "RESPIRATORY TRACT CONGESTION",
            "RESPIRATORY TRACT CONGESTION",
            null,
            "RESPIRATORY TRACT CONGESTION",
            null,
            "HLT_0330",
            null,
            "HLGT_0424",
            null,
            "RESPIRATORY THORACIC AND MEDIASTINAL DISORDERS",
            null,
            "RESPIRATORY THORACIC AND MEDIASTINAL DISORDERS",
            null,
            "MILD",
            "N",
            "",
            "NONE",
            "NOT RECOVERED/NOT RESOLVED",
            "N",
            "N",
            "N",
            "N",
            "N",
            "N",
            "N",
            "2013-11-05",
            "2013-10-23",
            "",
            56,
            null,
            "Y"
          ],
          [
            179,
            "CDISCPILOT01",
            "AE",
            "01-701-1302",
            20,
            "E30",
            "RHINITIS",
            "CORYZA",
            null,
            "RHINITIS",
            null,
            "HLT_0239",
            null,
            "HLGT_0322",
            null,
            "INFECTIONS AND INFESTATIONS",
            null,
            "INFECTIONS AND INFESTATIONS",
            null,
            "MILD",
            "N",
            "",
            "NONE",
            "NOT RECOVERED/NOT RESOLVED",
            "N",
            "N",
            "N",
            "N",
            "N",
            "N",
            "N",
            "2013-11-05",
            "2013-10-23",
            "",
            56,
            null,
            "Y"
          ],
          [
            180,
            "CDISCPILOT01",
            "AE",
            "01-701-1302",
            3,
            "E26",
            "STOMACH DISCOMFORT",
            "STOMACH UPSET",
            null,
            "STOMACH DISCOMFORT",
            null,
            "HLT_0065",
            null,
            "HLGT_0183",
            null,
            "GASTROINTESTINAL DISORDERS",
            null,
            "GASTROINTESTINAL DISORDERS",
            null,
            "MILD",
            "N",
            "",
            "POSSIBLE",
            "NOT RECOVERED/NOT RESOLVED",
            "N",
            "N",
            "N",
            "N",
            "N",
            "N",
            "N",
            "2013-09-15",
            "2013-08-30",
            "",
            2,
            null,
            "Y"
          ],
          [
            181,
            "CDISCPILOT01",
            "AE",
            "01-701-1317",
            3,
            "E13",
            "アプリケーションサイトの紅斑",
            "APPLICATION SITE REDNESS",
            null,
            "APPLICATION SITE ERYTHEMA",
            null,
            "HLT_0617",
            null,
            "HLGT_0152",
            null,
            "GENERAL DISORDERS AND ADMINISTRATION SITE CONDITIONS",
            null,
            "GENERAL DISORDERS AND ADMINISTRATION SITE CONDITIONS",
            null,
            "MILD",
            "N",
            "",
            "POSSIBLE",
            "NOT RECOVERED/NOT RESOLVED",
            "N",
            "N",
            "N",
            "N",
            "N",
            "N",
            "N",
            "2014-07-03",
            "2014-06-23",
            "",
            33,
            null,
            "Y"
          ],
          [
            182,
            "CDISCPILOT01",
            "AE",
            "01-701-1317",
            4,
            "E14",
            "アプリケーションサイトのかゆみ",
            "APPLICATION SITE ITCHING",
            null,
            "APPLICATION SITE PRURITUS",
            null,
            "HLT_0317",
            null,
            "HLGT_0338",
            null,
            "GENERAL DISORDERS AND ADMINISTRATION SITE CONDITIONS",
            null,
            "GENERAL DISORDERS AND ADMINISTRATION SITE CONDITIONS",
            null,
            "MILD",
            "N",
            "",
            "POSSIBLE",
            "NOT RECOVERED/NOT RESOLVED",
            "N",
            "N",
            "N",
            "N",
            "N",
            "N",
            "N",
            "2014-07-03",
            "2014-06-23",
            "",
            33,
            null,
            "Y"
          ],
          [
            183,
            "CDISCPILOT01",
            "AE",
            "01-701-1317",
            5,
            "E15",
            "APPLICATION SITE URTICARIA",
            "APPLICATION SITE URTICARIA",
            null,
            "APPLICATION SITE URTICARIA",
            null,
            "HLT_0196",
            null,
            "HLGT_0233",
            null,
            "GENERAL DISORDERS AND ADMINISTRATION SITE CONDITIONS",
            null,
            "GENERAL DISORDERS AND ADMINISTRATION SITE CONDITIONS",
            null,
            "MILD",
            "N",
            "",
            "POSSIBLE",
            "NOT RECOVERED/NOT RESOLVED",
            "N",
            "N",
            "N",
            "N",
            "N",
            "N",
            "N",
            "2014-07-03",
            "2014-06-23",
            "",
            33,
            null,
            "Y"
          ],
          [
            184,
            "CDISCPILOT01",
            "AE",
            "01-701-1317",
            2,
            "E12",
            "CYST",
            "CYST",
            null,
            "CYST",
            null,
            "HLT_0763",
            null,
            "HLGT_0341",
            null,
            "GENERAL DISORDERS AND ADMINISTRATION SITE CONDITIONS",
            null,
            "GENERAL DISORDERS AND ADMINISTRATION SITE CONDITIONS",
            null,
            "MILD",
            "N",
            "",
            "NONE",
            "NOT RECOVERED/NOT RESOLVED",
            "N",
            "N",
            "N",
            "N",
            "N",
            "N",
            "N",
            "2014-05-20",
            "2014-05-13",
            "",
            -9,
            null,
            "N"
          ],
          [
            185,
            "CDISCPILOT01",
            "AE",
            "01-701-1317",
            6,
            "E16",
            "DEPRESSED MOOD",
            "DEPRESSED MOOD",
            null,
            "DEPRESSED MOOD",
            null,
            "HLT_0784",
            null,
            "HLGT_0122",
            null,
            "PSYCHIATRIC DISORDERS",
            null,
            "PSYCHIATRIC DISORDERS",
            null,
            "MILD",
            "N",
            "",
            "POSSIBLE",
            "NOT RECOVERED/NOT RESOLVED",
            "N",
            "N",
            "N",
            "N",
            "N",
            "N",
            "N",
            "2014-07-22",
            "2014-07-04",
            "",
            44,
            null,
            "Y"
          ],
          [
            186,
            "CDISCPILOT01",
            "AE",
            "01-701-1317",
            7,
            "E16",
            "DEPRESSED MOOD",
            "DEPRESSED MOOD",
            null,
            "DEPRESSED MOOD",
            null,
            "HLT_0784",
            null,
            "HLGT_0122",
            null,
            "PSYCHIATRIC DISORDERS",
            null,
            "PSYCHIATRIC DISORDERS",
            null,
            "MODERATE",
            "N",
            "",
            "POSSIBLE",
            "NOT RECOVERED/NOT RESOLVED",
            "N",
            "N",
            "N",
            "N",
            "N",
            "N",
            "N",
            "2014-10-09",
            "2014-07-04",
            "",
            44,
            null,
            "Y"
          ],
          [
            187,
            "CDISCPILOT01",
            "AE",
            "01-701-1317",
            9,
            "E18",
            "DYSPHONIA",
            "HOARSENESS",
            null,
            "DYSPHONIA",
            null,
            "HLT_0073",
            null,
            "HLGT_0274",
            null,
            "RESPIRATORY THORACIC AND MEDIASTINAL DISORDERS",
            null,
            "RESPIRATORY THORACIC AND MEDIASTINAL DISORDERS",
            null,
            "MILD",
            "N",
            "",
            "REMOTE",
            "NOT RECOVERED/NOT RESOLVED",
            "N",
            "N",
            "N",
            "N",
            "N",
            "N",
            "N",
            "2014-11-06",
            "2014-11-03",
            "",
            166,
            null,
            "Y"
          ],
          [
            188,
            "CDISCPILOT01",
            "AE",
            "01-701-1317",
            8,
            "E17",
            "倦怠感",
            "TIREDNESS",
            null,
            "FATIGUE",
            null,
            "HLT_0043",
            null,
            "HLGT_0181",
            null,
            "GENERAL DISORDERS AND ADMINISTRATION SITE CONDITIONS",
            null,
            "GENERAL DISORDERS AND ADMINISTRATION SITE CONDITIONS",
            null,
            "MILD",
            "N",
            "",
            "REMOTE",
            "NOT RECOVERED/NOT RESOLVED",
            "N",
            "N",
            "N",
            "N",
            "N",
            "N",
            "N",
            "2014-10-09",
            "2014-09-12",
            "",
            114,
            null,
            "Y"
          ],
          [
            189,
            "CDISCPILOT01",
            "AE",
            "01-701-1317",
            1,
            "E11",
            "ONYCHOMYCOSIS",
            "ONYCHOMYCOSIS",
            null,
            "ONYCHOMYCOSIS",
            null,
            "HLT_0275",
            null,
            "HLGT_0243",
            null,
            "INFECTIONS AND INFESTATIONS",
            null,
            "INFECTIONS AND INFESTATIONS",
            null,
            "MILD",
            "N",
            "",
            "NONE",
            "NOT RECOVERED/NOT RESOLVED",
            "N",
            "N",
            "N",
            "N",
            "N",
            "N",
            "N",
            "2014-05-20",
            "2014-05-13",
            "",
            -9,
            null,
            "N"
          ],
          [
            190,
            "CDISCPILOT01",
            "AE",
            "01-701-1324",
            1,
            "E04",
            "アプリケーションサイトの紅斑",
            "APPLICATION SITE ERYTHEMA",
            null,
            "APPLICATION SITE ERYTHEMA",
            null,
            "HLT_0617",
            null,
            "HLGT_0152",
            null,
            "GENERAL DISORDERS AND ADMINISTRATION SITE CONDITIONS",
            null,
            "GENERAL DISORDERS AND ADMINISTRATION SITE CONDITIONS",
            null,
            "MILD",
            "N",
            "",
            "PROBABLE",
            "NOT RECOVERED/NOT RESOLVED",
            "N",
            "N",
            "N",
            "N",
            "N",
            "N",
            "N",
            "2012-10-30",
            "2012-10-22",
            "",
            21,
            null,
            "Y"
          ],
          [
            191,
            "CDISCPILOT01",
            "AE",
            "01-701-1324",
            2,
            "E06",
            "アプリケーションサイトのかゆみ",
            "APPLICATION SITE ITCHING",
            null,
            "APPLICATION SITE PRURITUS",
            null,
            "HLT_0317",
            null,
            "HLGT_0338",
            null,
            "GENERAL DISORDERS AND ADMINISTRATION SITE CONDITIONS",
            null,
            "GENERAL DISORDERS AND ADMINISTRATION SITE CONDITIONS",
            null,
            "MILD",
            "N",
            "",
            "PROBABLE",
            "NOT RECOVERED/NOT RESOLVED",
            "N",
            "N",
            "N",
            "N",
            "N",
            "N",
            "N",
            "2012-12-25",
            "2012-12-02",
            "",
            62,
            null,
            "Y"
          ],
          [
            192,
            "CDISCPILOT01",
            "AE",
            "01-701-1324",
            3,
            "E05",
            "APPLICATION SITE VESICLES",
            "APPLICATION SITE BLISTER",
            null,
            "APPLICATION SITE VESICLES",
            null,
            "HLT_0180",
            null,
            "HLGT_0576",
            null,
            "GENERAL DISORDERS AND ADMINISTRATION SITE CONDITIONS",
            null,
            "GENERAL DISORDERS AND ADMINISTRATION SITE CONDITIONS",
            null,
            "MILD",
            "N",
            "",
            "PROBABLE",
            "NOT RECOVERED/NOT RESOLVED",
            "N",
            "N",
            "N",
            "N",
            "N",
            "N",
            "N",
            "2012-12-25",
            "2012-12-25",
            "2013-01-16",
            85,
            107,
            "Y"
          ],
          [
            193,
            "CDISCPILOT01",
            "AE",
            "01-701-1324",
            4,
            "E05",
            "APPLICATION SITE VESICLES",
            "APPLICATION SITE BLISTER",
            null,
            "APPLICATION SITE VESICLES",
            null,
            "HLT_0180",
            null,
            "HLGT_0576",
            null,
            "GENERAL DISORDERS AND ADMINISTRATION SITE CONDITIONS",
            null,
            "GENERAL DISORDERS AND ADMINISTRATION SITE CONDITIONS",
            null,
            "MILD",
            "N",
            "",
            "PROBABLE",
            "RECOVERED/RESOLVED",
            "N",
            "N",
            "N",
            "N",
            "N",
            "N",
            "N",
            "2013-01-22",
            "2012-12-25",
            "2013-01-16",
            85,
            107,
            "Y"
          ],
          [
            194,
            "CDISCPILOT01",
            "AE",
            "01-701-1341",
            2,
            "E10",
            "アプリケーションサイトの紅斑",
            "APPLICATION SITE REDNESS",
            null,
            "APPLICATION SITE ERYTHEMA",
            null,
            "HLT_0617",
            null,
            "HLGT_0152",
            null,
            "GENERAL DISORDERS AND ADMINISTRATION SITE CONDITIONS",
            null,
            "GENERAL DISORDERS AND ADMINISTRATION SITE CONDITIONS",
            null,
            "MODERATE",
            "N",
            "",
            "PROBABLE",
            "NOT RECOVERED/NOT RESOLVED",
            "N",
            "N",
            "N",
            "N",
            "N",
            "N",
            "N",
            "2013-02-07",
            "2013-01-19",
            "",
            15,
            null,
            "Y"
          ],
          [
            195,
            "CDISCPILOT01",
            "AE",
            "01-701-1341",
            4,
            "E12",
            "アプリケーションサイトの紅斑",
            "APPLICATION SITE REDNESS",
            null,
            "APPLICATION SITE ERYTHEMA",
            null,
            "HLT_0617",
            null,
            "HLGT_0152",
            null,
            "GENERAL DISORDERS AND ADMINISTRATION SITE CONDITIONS",
            null,
            "GENERAL DISORDERS AND ADMINISTRATION SITE CONDITIONS",
            null,
            "MODERATE",
            "N",
            "",
            "PROBABLE",
            "NOT RECOVERED/NOT RESOLVED",
            "N",
            "N",
            "N",
            "N",
            "N",
            "N",
            "N",
            "2013-02-07",
            "2013-01-26",
            "",
            22,
            null,
            "Y"
          ],
          [
            196,
            "CDISCPILOT01",
            "AE",
            "01-701-1341",
            5,
            "E13",
            "アプリケーションサイトの刺激",
            "APPLICATION SITE BURNING",
            null,
            "APPLICATION SITE IRRITATION",
            null,
            "HLT_0061",
            null,
            "HLGT_0346",
            null,
            "GENERAL DISORDERS AND ADMINISTRATION SITE CONDITIONS",
            null,
            "GENERAL DISORDERS AND ADMINISTRATION SITE CONDITIONS",
            null,
            "MODERATE",
            "N",
            "",
            "PROBABLE",
            "RECOVERED/RESOLVED",
            "N",
            "N",
            "N",
            "N",
            "N",
            "N",
            "N",
            "2013-02-07",
            "2013-01-26",
            "2013-01-30",
            22,
            26,
            "Y"
          ],
          [
            197,
            "CDISCPILOT01",
            "AE",
            "01-701-1341",
            1,
            "E09",
            "アプリケーションサイトのかゆみ",
            "APPLICATION SITE ITCHING",
            null,
            "APPLICATION SITE PRURITUS",
            null,
            "HLT_0317",
            null,
            "HLGT_0338",
            null,
            "GENERAL DISORDERS AND ADMINISTRATION SITE CONDITIONS",
            null,
            "GENERAL DISORDERS AND ADMINISTRATION SITE CONDITIONS",
            null,
            "MODERATE",
            "N",
            "",
            "PROBABLE",
            "NOT RECOVERED/NOT RESOLVED",
            "N",
            "N",
            "N",
            "N",
            "N",
            "N",
            "N",
            "2013-02-07",
            "2013-01-19",
            "",
            15,
            null,
            "Y"
          ],
          [
            198,
            "CDISCPILOT01",
            "AE",
            "01-701-1341",
            3,
            "E11",
            "アプリケーションサイトのかゆみ",
            "APPLICATION SITE ITCHING",
            null,
            "APPLICATION SITE PRURITUS",
            null,
            "HLT_0317",
            null,
            "HLGT_0338",
            null,
            "GENERAL DISORDERS AND ADMINISTRATION SITE CONDITIONS",
            null,
            "GENERAL DISORDERS AND ADMINISTRATION SITE CONDITIONS",
            null,
            "MODERATE",
            "N",
            "",
            "PROBABLE",
            "RECOVERED/RESOLVED",
            "N",
            "N",
            "N",
            "N",
            "N",
            "N",
            "N",
            "2013-02-07",
            "2013-01-26",
            "2013-01-30",
            22,
            26,
            "Y"
          ],
          [
            199,
            "CDISCPILOT01",
            "AE",
            "01-701-1360",
            1,
            "E08",
            "アプリケーションサイトの紅斑",
            "APPLICATION SITE ERYTHEMA",
            null,
            "APPLICATION SITE ERYTHEMA",
            null,
            "HLT_0617",
            null,
            "HLGT_0152",
            null,
            "GENERAL DISORDERS AND ADMINISTRATION SITE CONDITIONS",
            null,
            "GENERAL DISORDERS AND ADMINISTRATION SITE CONDITIONS",
            null,
            "MODERATE",
            "N",
            "",
            "PROBABLE",
            "NOT RECOVERED/NOT RESOLVED",
            "N",
            "N",
            "N",
            "N",
            "N",
            "N",
            "N",
            "2013-08-14",
            "2013-08-02",
            "",
            3,
            null,
            "Y"
          ],
          [
            200,
            "CDISCPILOT01",
            "AE",
            "01-701-1360",
            2,
            "E09",
            "アプリケーションサイトのかゆみ",
            "APPLICATION SITE ITCHING",
            null,
            "APPLICATION SITE PRURITUS",
            null,
            "HLT_0317",
            null,
            "HLGT_0338",
            null,
            "GENERAL DISORDERS AND ADMINISTRATION SITE CONDITIONS",
            null,
            "GENERAL DISORDERS AND ADMINISTRATION SITE CONDITIONS",
            null,
            "MODERATE",
            "N",
            "",
            "PROBABLE",
            "NOT RECOVERED/NOT RESOLVED",
            "N",
            "N",
            "N",
            "N",
            "N",
            "N",
            "N",
            "2013-08-14",
            "2013-08-02",
            "",
            3,
            null,
            "Y"
          ],
          [
            201,
            "CDISCPILOT01",
            "AE",
            "01-701-1360",
            3,
            "E10",
            "APPLICATION SITE VESICLES",
            "APPLICATION SITE BLISTER",
            null,
            "APPLICATION SITE VESICLES",
            null,
            "HLT_0180",
            null,
            "HLGT_0576",
            null,
            "GENERAL DISORDERS AND ADMINISTRATION SITE CONDITIONS",
            null,
            "GENERAL DISORDERS AND ADMINISTRATION SITE CONDITIONS",
            null,
            "MODERATE",
            "N",
            "",
            "PROBABLE",
            "NOT RECOVERED/NOT RESOLVED",
            "N",
            "N",
            "N",
            "N",
            "N",
            "N",
            "N",
            "2013-08-14",
            "2013-08-05",
            "",
            6,
            null,
            "Y"
          ],
          [
            202,
            "CDISCPILOT01",
            "AE",
            "01-701-1363",
            3,
            "E11",
            "アプリケーションサイトのかゆみ",
            "APPLICATION SITE ITCHING",
            null,
            "APPLICATION SITE PRURITUS",
            null,
            "HLT_0317",
            null,
            "HLGT_0338",
            null,
            "GENERAL DISORDERS AND ADMINISTRATION SITE CONDITIONS",
            null,
            "GENERAL DISORDERS AND ADMINISTRATION SITE CONDITIONS",
            null,
            "MILD",
            "N",
            "",
            "PROBABLE",
            "NOT RECOVERED/NOT RESOLVED",
            "N",
            "N",
            "N",
            "N",
            "N",
            "N",
            "N",
            "2013-07-24",
            "2013-07-16",
            "",
            48,
            null,
            "Y"
          ],
          [
            203,
            "CDISCPILOT01",
            "AE",
            "01-701-1363",
            5,
            "E13",
            "BACK PAIN",
            "BACKACHE",
            null,
            "BACK PAIN",
            null,
            "HLT_0115",
            null,
            "HLGT_0508",
            null,
            "MUSCULOSKELETAL AND CONNECTIVE TISSUE DISORDERS",
            null,
            "MUSCULOSKELETAL AND CONNECTIVE TISSUE DISORDERS",
            null,
            "MILD",
            "N",
            "",
            "NONE",
            "NOT RECOVERED/NOT RESOLVED",
            "N",
            "N",
            "N",
            "N",
            "N",
            "N",
            "N",
            "2013-10-14",
            "2013-10-13",
            "2013-10-15",
            137,
            139,
            "Y"
          ],
          [
            204,
            "CDISCPILOT01",
            "AE",
            "01-701-1363",
            6,
            "E13",
            "BACK PAIN",
            "BACKACHE",
            null,
            "BACK PAIN",
            null,
            "HLT_0115",
            null,
            "HLGT_0508",
            null,
            "MUSCULOSKELETAL AND CONNECTIVE TISSUE DISORDERS",
            null,
            "MUSCULOSKELETAL AND CONNECTIVE TISSUE DISORDERS",
            null,
            "MILD",
            "N",
            "",
            "NONE",
            "RECOVERED/RESOLVED",
            "N",
            "N",
            "N",
            "N",
            "N",
            "N",
            "N",
            "2013-11-13",
            "2013-10-13",
            "2013-10-15",
            137,
            139,
            "Y"
          ],
          [
            205,
            "CDISCPILOT01",
            "AE",
            "01-701-1363",
            2,
            "E03",
            "頭痛",
            "HEADACHE",
            null,
            "HEADACHE",
            null,
            "HLT_0064",
            null,
            "HLGT_0344",
            null,
            "NERVOUS SYSTEM DISORDERS",
            null,
            "NERVOUS SYSTEM DISORDERS",
            null,
            "MODERATE",
            "N",
            "",
            "POSSIBLE",
            "NOT RECOVERED/NOT RESOLVED",
            "N",
            "N",
            "N",
            "N",
            "N",
            "N",
            "N",
            "2013-07-24",
            "1986",
            "",
            null,
            null,
            "N"
          ],
          [
            206,
            "CDISCPILOT01",
            "AE",
            "01-701-1363",
            4,
            "E03",
            "頭痛",
            "HEADACHE",
            null,
            "HEADACHE",
            null,
            "HLT_0064",
            null,
            "HLGT_0344",
            null,
            "NERVOUS SYSTEM DISORDERS",
            null,
            "NERVOUS SYSTEM DISORDERS",
            null,
            "MILD",
            "N",
            "",
            "POSSIBLE",
            "NOT RECOVERED/NOT RESOLVED",
            "N",
            "N",
            "N",
            "N",
            "N",
            "N",
            "N",
            "2013-10-14",
            "1986",
            "",
            null,
            null,
            "N"
          ],
          [
            207,
            "CDISCPILOT01",
            "AE",
            "01-701-1363",
            1,
            "E09",
            "吐き気",
            "NAUSEA",
            null,
            "NAUSEA",
            null,
            "HLT_0742",
            null,
            "HLGT_0326",
            null,
            "GASTROINTESTINAL DISORDERS",
            null,
            "GASTROINTESTINAL DISORDERS",
            null,
            "MILD",
            "N",
            "",
            "REMOTE",
            "RECOVERED/RESOLVED",
            "N",
            "N",
            "N",
            "N",
            "N",
            "N",
            "N",
            "2013-06-25",
            "2013-06-14",
            "2013-06-15",
            16,
            17,
            "Y"
          ],
          [
            208,
            "CDISCPILOT01",
            "AE",
            "01-701-1383",
            3,
            "E06",
            "アプリケーションサイトの紅斑",
            "APPLICATION SITE ERYTHEMA",
            null,
            "APPLICATION SITE ERYTHEMA",
            null,
            "HLT_0617",
            null,
            "HLGT_0152",
            null,
            "GENERAL DISORDERS AND ADMINISTRATION SITE CONDITIONS",
            null,
            "GENERAL DISORDERS AND ADMINISTRATION SITE CONDITIONS",
            null,
            "MILD",
            "N",
            "",
            "POSSIBLE",
            "RECOVERED/RESOLVED",
            "N",
            "N",
            "N",
            "N",
            "N",
            "N",
            "N",
            "2013-04-02",
            "2013-03-23",
            "2013-03-26",
            48,
            51,
            "Y"
          ],
          [
            209,
            "CDISCPILOT01",
            "AE",
            "01-701-1383",
            5,
            "E08",
            "アプリケーションサイトの紅斑",
            "APPLICATION SITE ERYTHEMA",
            null,
            "APPLICATION SITE ERYTHEMA",
            null,
            "HLT_0617",
            null,
            "HLGT_0152",
            null,
            "GENERAL DISORDERS AND ADMINISTRATION SITE CONDITIONS",
            null,
            "GENERAL DISORDERS AND ADMINISTRATION SITE CONDITIONS",
            null,
            "MILD",
            "N",
            "",
            "POSSIBLE",
            "NOT RECOVERED/NOT RESOLVED",
            "N",
            "N",
            "N",
            "N",
            "N",
            "N",
            "N",
            "2013-04-30",
            "2013-04-12",
            "",
            68,
            null,
            "Y"
          ],
          [
            210,
            "CDISCPILOT01",
            "AE",
            "01-701-1383",
            6,
            "E09",
            "アプリケーションサイトの刺激",
            "APPLICATION SITE BURNING",
            null,
            "APPLICATION SITE IRRITATION",
            null,
            "HLT_0061",
            null,
            "HLGT_0346",
            null,
            "GENERAL DISORDERS AND ADMINISTRATION SITE CONDITIONS",
            null,
            "GENERAL DISORDERS AND ADMINISTRATION SITE CONDITIONS",
            null,
            "MILD",
            "N",
            "",
            "POSSIBLE",
            "NOT RECOVERED/NOT RESOLVED",
            "N",
            "N",
            "N",
            "N",
            "N",
            "N",
            "N",
            "2013-04-30",
            "2013-04-12",
            "",
            68,
            null,
            "Y"
          ],
          [
            211,
            "CDISCPILOT01",
            "AE",
            "01-701-1383",
            8,
            "E09",
            "アプリケーションサイトの刺激",
            "APPLICATION SITE BURNING",
            null,
            "APPLICATION SITE IRRITATION",
            null,
            "HLT_0061",
            null,
            "HLGT_0346",
            null,
            "GENERAL DISORDERS AND ADMINISTRATION SITE CONDITIONS",
            null,
            "GENERAL DISORDERS AND ADMINISTRATION SITE CONDITIONS",
            null,
            "MODERATE",
            "N",
            "",
            "POSSIBLE",
            "NOT RECOVERED/NOT RESOLVED",
            "N",
            "N",
            "N",
            "N",
            "N",
            "N",
            "N",
            "2013-05-30",
            "2013-04-12",
            "",
            68,
            null,
            "Y"
          ],
          [
            212,
            "CDISCPILOT01",
            "AE",
            "01-701-1383",
            2,
            "E05",
            "APPLICATION SITE PAIN",
            "APPLICATION SITE PAIN",
            null,
            "APPLICATION SITE PAIN",
            null,
            "HLT_0342",
            null,
            "HLGT_0085",
            null,
            "GENERAL DISORDERS AND ADMINISTRATION SITE CONDITIONS",
            null,
            "GENERAL DISORDERS AND ADMINISTRATION SITE CONDITIONS",
            null,
            "MILD",
            "N",
            "",
            "PROBABLE",
            "RECOVERED/RESOLVED",
            "N",
            "N",
            "N",
            "N",
            "N",
            "N",
            "N",
            "2013-02-19",
            "2013-02-07",
            "2013-02-07",
            4,
            4,
            "Y"
          ],
          [
            213,
            "CDISCPILOT01",
            "AE",
            "01-701-1383",
            1,
            "E04",
            "アプリケーションサイトのかゆみ",
            "APPLICATION SITE ITCHING",
            null,
            "APPLICATION SITE PRURITUS",
            null,
            "HLT_0317",
            null,
            "HLGT_0338",
            null,
            "GENERAL DISORDERS AND ADMINISTRATION SITE CONDITIONS",
            null,
            "GENERAL DISORDERS AND ADMINISTRATION SITE CONDITIONS",
            null,
            "MILD",
            "N",
            "",
            "PROBABLE",
            "RECOVERED/RESOLVED",
            "N",
            "N",
            "N",
            "N",
            "N",
            "N",
            "N",
            "2013-02-19",
            "2013-02-07",
            "2013-02-07",
            4,
            4,
            "Y"
          ],
          [
            214,
            "CDISCPILOT01",
            "AE",
            "01-701-1383",
            4,
            "E07",
            "アプリケーションサイトのかゆみ",
            "APPLICATION SITE ITCHING",
            null,
            "APPLICATION SITE PRURITUS",
            null,
            "HLT_0317",
            null,
            "HLGT_0338",
            null,
            "GENERAL DISORDERS AND ADMINISTRATION SITE CONDITIONS",
            null,
            "GENERAL DISORDERS AND ADMINISTRATION SITE CONDITIONS",
            null,
            "MILD",
            "N",
            "",
            "POSSIBLE",
            "NOT RECOVERED/NOT RESOLVED",
            "N",
            "N",
            "N",
            "N",
            "N",
            "N",
            "N",
            "2013-04-02",
            "2013-03-23",
            "",
            48,
            null,
            "Y"
          ],
          [
            215,
            "CDISCPILOT01",
            "AE",
            "01-701-1383",
            7,
            "E07",
            "アプリケーションサイトのかゆみ",
            "APPLICATION SITE ITCHING",
            null,
            "APPLICATION SITE PRURITUS",
            null,
            "HLT_0317",
            null,
            "HLGT_0338",
            null,
            "GENERAL DISORDERS AND ADMINISTRATION SITE CONDITIONS",
            null,
            "GENERAL DISORDERS AND ADMINISTRATION SITE CONDITIONS",
            null,
            "MODERATE",
            "N",
            "",
            "POSSIBLE",
            "NOT RECOVERED/NOT RESOLVED",
            "N",
            "N",
            "N",
            "N",
            "N",
            "N",
            "N",
            "2013-05-30",
            "2013-03-23",
            "",
            48,
            null,
            "Y"
          ],
          [
            216,
            "CDISCPILOT01",
            "AE",
            "01-701-1383",
            9,
            "E10",
            "APPLICATION SITE VESICLES",
            "APPLICATION SITE BLISTER",
            null,
            "APPLICATION SITE VESICLES",
            null,
            "HLT_0180",
            null,
            "HLGT_0576",
            null,
            "GENERAL DISORDERS AND ADMINISTRATION SITE CONDITIONS",
            null,
            "GENERAL DISORDERS AND ADMINISTRATION SITE CONDITIONS",
            null,
            "MILD",
            "N",
            "",
            "POSSIBLE",
            "RECOVERED/RESOLVED",
            "N",
            "N",
            "N",
            "N",
            "N",
            "N",
            "N",
            "2013-05-30",
            "2013-05-07",
            "2013-05-24",
            93,
            110,
            "Y"
          ],
          [
            217,
            "CDISCPILOT01",
            "AE",
            "01-701-1383",
            10,
            "E11",
            "CHEST DISCOMFORT",
            "CHEST PRESSURE",
            null,
            "CHEST DISCOMFORT",
            null,
            "HLT_0593",
            null,
            "HLGT_0441",
            null,
            "GENERAL DISORDERS AND ADMINISTRATION SITE CONDITIONS",
            null,
            "GENERAL DISORDERS AND ADMINISTRATION SITE CONDITIONS",
            null,
            "MILD",
            "N",
            "",
            "NONE",
            "RECOVERED/RESOLVED",
            "N",
            "N",
            "N",
            "N",
            "N",
            "N",
            "N",
            "2013-06-25",
            "2013-06-24",
            "2013-06-24",
            141,
            141,
            "Y"
          ],
          [
            218,
            "CDISCPILOT01",
            "AE",
            "01-701-1383",
            12,
            "E13",
            "咳",
            "COUGH",
            null,
            "COUGH",
            null,
            "HLT_0701",
            null,
            "HLGT_0280",
            null,
            "RESPIRATORY THORACIC AND MEDIASTINAL DISORDERS",
            null,
            "RESPIRATORY THORACIC AND MEDIASTINAL DISORDERS",
            null,
            "MODERATE",
            "N",
            "",
            "NONE",
            "RECOVERED/RESOLVED",
            "N",
            "N",
            "N",
            "N",
            "N",
            "N",
            "N",
            "2013-07-30",
            "2013-07-17",
            "2013-07-26",
            164,
            173,
            "Y"
          ],
          [
            219,
            "CDISCPILOT01",
            "AE",
            "01-701-1383",
            11,
            "E12",
            "頭痛",
            "FULLNESS HEAD",
            null,
            "HEADACHE",
            null,
            "HLT_0064",
            null,
            "HLGT_0344",
            null,
            "NERVOUS SYSTEM DISORDERS",
            null,
            "NERVOUS SYSTEM DISORDERS",
            null,
            "MILD",
            "N",
            "",
            "NONE",
            "RECOVERED/RESOLVED",
            "N",
            "N",
            "N",
            "N",
            "N",
            "N",
            "N",
            "2013-06-25",
            "2013-06-24",
            "2013-06-24",
            141,
            141,
            "Y"
          ],
          [
            220,
            "CDISCPILOT01",
            "AE",
            "01-701-1387",
            1,
            "E08",
            "下痢",
            "DIARRHEA",
            null,
            "DIARRHOEA",
            null,
            "HLT_0148",
            null,
            "HLGT_0588",
            null,
            "GASTROINTESTINAL DISORDERS",
            null,
            "GASTROINTESTINAL DISORDERS",
            null,
            "MILD",
            "N",
            "",
            "REMOTE",
            "RECOVERED/RESOLVED",
            "N",
            "N",
            "N",
            "N",
            "N",
            "N",
            "N",
            "2014-03-25",
            "2014-03-18",
            "2014-03-18",
            7,
            7,
            "Y"
          ],
          [
            221,
            "CDISCPILOT01",
            "AE",
            "01-701-1387",
            2,
            "E09",
            "HYPERHIDROSIS",
            "SWEATING",
            null,
            "HYPERHIDROSIS",
            null,
            "HLT_0587",
            null,
            "HLGT_0005",
            null,
            "SKIN AND SUBCUTANEOUS TISSUE DISORDERS",
            null,
            "SKIN AND SUBCUTANEOUS TISSUE DISORDERS",
            null,
            "MILD",
            "N",
            "",
            "REMOTE",
            "RECOVERED/RESOLVED",
            "N",
            "N",
            "N",
            "N",
            "N",
            "N",
            "N",
            "2014-03-25",
            "2014-03-18",
            "2014-03-18",
            7,
            7,
            "Y"
          ],
          [
            222,
            "CDISCPILOT01",
            "AE",
            "01-701-1392",
            1,
            "E04",
